#
# Results on Tuesday February 26 2019 01:24:33 UTC.
# USER AGENT: Mozilla/5.0 (Windows NT 10.0; Win64; x64) AppleWebKit/537.36 (KHTML, like Gecko) Chrome/72.0.3626.119 Safari/537.36
# Design number was non-random = 0
#
# Columns below this comment are as follows:
# 1. Time results were received.
# 2. MD5 hash of participant's IP address.
# 3. Controller name.
# 4. Item number.
# 5. Element number.
# 6. Type.
# 7. Group.
# 8. Field name.
# 9. Field value.
1551144274,a96f416c9abaef0704595ac226f7e7a3,Form,1,0,intro,NULL,age,27
1551144274,a96f416c9abaef0704595ac226f7e7a3,Form,1,0,intro,NULL,consent,yes
1551144274,a96f416c9abaef0704595ac226f7e7a3,Form,1,0,intro,NULL,sex,female
1551144274,a96f416c9abaef0704595ac226f7e7a3,Form,1,0,intro,NULL,english,native
1551144274,a96f416c9abaef0704595ac226f7e7a3,Form,1,0,intro,NULL,education,bachelor
1551144274,a96f416c9abaef0704595ac226f7e7a3,FormBIS,6,0,1question,NULL,ANSWER,All objects are red squares
1551144274,a96f416c9abaef0704595ac226f7e7a3,FormBIS,8,0,question3,NULL,ANSWER,The majority of objects are blue and are mostly circle shaped. Some blue objects are squares. The rest are red squares.
1551144274,a96f416c9abaef0704595ac226f7e7a3,FormBIS,9,0,question4,NULL,ANSWER,More of the objects are red and are mostly square shaped%2C followed by some round shapes. The remaining objects are blue with all but one of those being square shaped.
1551144274,a96f416c9abaef0704595ac226f7e7a3,FormBIS,12,0,question7,NULL,ANSWER,There are mostly red round objects displayed with a couple of blue square objects.
1551144274,a96f416c9abaef0704595ac226f7e7a3,FormBIS,14,0,question9,NULL,ANSWER,All of the objects are blue. All but one of these objects are square-shaped; the last is round.
1551144274,a96f416c9abaef0704595ac226f7e7a3,FormBIS,7,0,question2,NULL,ANSWER,All of the objects are blue. Most are square shaped with a couple of exceptions which are round.
1551144274,a96f416c9abaef0704595ac226f7e7a3,FormBIS,15,0,question10,NULL,ANSWER,The majority of shapes are blue circles with the exception of one blue square. There are a couple of red shapes; one is square shaped and one is round.
1551144274,a96f416c9abaef0704595ac226f7e7a3,FormBIS,11,0,question6,NULL,ANSWER,All objects are red. The number of shapes that are square is double that of the round shapes.
1551144274,a96f416c9abaef0704595ac226f7e7a3,FormBIS,13,0,question8,NULL,ANSWER,There is double the number of red squares than blue objects. Of the blue objects%2C the number of round objects is double that of the square objects.
1551144274,a96f416c9abaef0704595ac226f7e7a3,FormBIS,10,0,question5,NULL,ANSWER,All of the shapes displayed are round. The ratio of red shapes to blue shapes is three to one.
#
# Results on Tuesday February 26 2019 09:27:27 UTC.
# USER AGENT: Mozilla/5.0 (Macintosh; Intel Mac OS X 10_13_6) AppleWebKit/605.1.15 (KHTML, like Gecko) Version/12.0.3 Safari/605.1.15
# Design number was non-random = 1
#
# Columns below this comment are as follows:
# 1. Time results were received.
# 2. MD5 hash of participant's IP address.
# 3. Controller name.
# 4. Item number.
# 5. Element number.
# 6. Type.
# 7. Group.
# 8. Field name.
# 9. Field value.
1551173247,0842179935e0c6da7b1c7d977f5ed09b,Form,1,0,intro,NULL,age,25
1551173247,0842179935e0c6da7b1c7d977f5ed09b,Form,1,0,intro,NULL,consent,yes
1551173247,0842179935e0c6da7b1c7d977f5ed09b,Form,1,0,intro,NULL,sex,female
1551173247,0842179935e0c6da7b1c7d977f5ed09b,Form,1,0,intro,NULL,english,native
1551173247,0842179935e0c6da7b1c7d977f5ed09b,Form,1,0,intro,NULL,education,bachelor
1551173247,0842179935e0c6da7b1c7d977f5ed09b,FormBIS,6,0,1question,NULL,ANSWER,all the objects shown are red squares. 
1551173247,0842179935e0c6da7b1c7d977f5ed09b,FormBIS,13,0,question8,NULL,ANSWER,most of the objects shown are red squares%2C but there are also two blue circles and a blue square.
1551173247,0842179935e0c6da7b1c7d977f5ed09b,FormBIS,10,0,question5,NULL,ANSWER,all the items shown are circles%2C most are red but a couple are blue.
1551173247,0842179935e0c6da7b1c7d977f5ed09b,FormBIS,9,0,question4,NULL,ANSWER,there is a mixtures or blue and red circles and squares.
1551173247,0842179935e0c6da7b1c7d977f5ed09b,FormBIS,7,0,question2,NULL,ANSWER,all the items are blue squares except for a couple blue circles.
1551173247,0842179935e0c6da7b1c7d977f5ed09b,FormBIS,8,0,question3,NULL,ANSWER,most of the items are blue circles but there are a couple of blue and red squares
1551173247,0842179935e0c6da7b1c7d977f5ed09b,FormBIS,15,0,question10,NULL,ANSWER,most of the items are blue circles but there are a few red and blue squares and a red circle.
1551173247,0842179935e0c6da7b1c7d977f5ed09b,FormBIS,14,0,question9,NULL,ANSWER,most of the items are blue squares but there is one blue circle
1551173247,0842179935e0c6da7b1c7d977f5ed09b,FormBIS,12,0,question7,NULL,ANSWER,most of theorems are red circles but there are a couple of blue squares
1551173247,0842179935e0c6da7b1c7d977f5ed09b,FormBIS,11,0,question6,NULL,ANSWER,all of the items are red and are a combination of circles and squares
#
# Results on Tuesday February 26 2019 13:16:37 UTC.
# USER AGENT: Mozilla/5.0 (Windows NT 10.0; Win64; x64) AppleWebKit/537.36 (KHTML, like Gecko) Chrome/72.0.3626.119 Safari/537.36
# Design number was non-random = 2
#
# Columns below this comment are as follows:
# 1. Time results were received.
# 2. MD5 hash of participant's IP address.
# 3. Controller name.
# 4. Item number.
# 5. Element number.
# 6. Type.
# 7. Group.
# 8. Field name.
# 9. Field value.
1551186998,4415630d94db3d49488ee33b4e0a609f,Form,1,0,intro,NULL,age,21
1551186998,4415630d94db3d49488ee33b4e0a609f,Form,1,0,intro,NULL,consent,yes
1551186998,4415630d94db3d49488ee33b4e0a609f,Form,1,0,intro,NULL,sex,female
1551186998,4415630d94db3d49488ee33b4e0a609f,Form,1,0,intro,NULL,english,native
1551186998,4415630d94db3d49488ee33b4e0a609f,Form,1,0,intro,NULL,education,bachelor
1551186998,4415630d94db3d49488ee33b4e0a609f,FormBIS,6,0,1question,NULL,ANSWER,All objects are red squares
1551186998,4415630d94db3d49488ee33b4e0a609f,FormBIS,8,0,question3,NULL,ANSWER,there is an uneven proportion of blue objects to red objects
1551186998,4415630d94db3d49488ee33b4e0a609f,FormBIS,14,0,question9,NULL,ANSWER,All of the objects are blue
1551186998,4415630d94db3d49488ee33b4e0a609f,FormBIS,7,0,question2,NULL,ANSWER,All of the objects are blue
1551186998,4415630d94db3d49488ee33b4e0a609f,FormBIS,11,0,question6,NULL,ANSWER,All of the objects are red
1551186998,4415630d94db3d49488ee33b4e0a609f,FormBIS,13,0,question8,NULL,ANSWER,There are more red objects than blue objects
1551186998,4415630d94db3d49488ee33b4e0a609f,FormBIS,12,0,question7,NULL,ANSWER,There are more red objects than blue objects
1551186998,4415630d94db3d49488ee33b4e0a609f,FormBIS,10,0,question5,NULL,ANSWER,There are only 2 blue circles
1551186998,4415630d94db3d49488ee33b4e0a609f,FormBIS,9,0,question4,NULL,ANSWER,There is a fair amount of each colour object
1551186998,4415630d94db3d49488ee33b4e0a609f,FormBIS,15,0,question10,NULL,ANSWER,There are less red objects
#
# Results on Tuesday February 26 2019 16:07:15 UTC.
# USER AGENT: Mozilla/5.0 (Windows NT 10.0; Win64; x64) AppleWebKit/537.36 (KHTML, like Gecko) Chrome/72.0.3626.119 Safari/537.36
# Design number was non-random = 3
#
# Columns below this comment are as follows:
# 1. Time results were received.
# 2. MD5 hash of participant's IP address.
# 3. Controller name.
# 4. Item number.
# 5. Element number.
# 6. Type.
# 7. Group.
# 8. Field name.
# 9. Field value.
1551197235,ce62ba4b2a3e4b5255b983f90e9121cd,Form,1,0,intro,NULL,age,21
1551197235,ce62ba4b2a3e4b5255b983f90e9121cd,Form,1,0,intro,NULL,consent,yes
1551197235,ce62ba4b2a3e4b5255b983f90e9121cd,Form,1,0,intro,NULL,sex,female
1551197235,ce62ba4b2a3e4b5255b983f90e9121cd,Form,1,0,intro,NULL,english,fluent
1551197235,ce62ba4b2a3e4b5255b983f90e9121cd,Form,1,0,intro,NULL,education,bachelor
1551197235,ce62ba4b2a3e4b5255b983f90e9121cd,FormBIS,6,0,1question,NULL,ANSWER,All objects are red squares.
1551197235,ce62ba4b2a3e4b5255b983f90e9121cd,FormBIS,10,0,question5,NULL,ANSWER,All objects are circles%2C some of them are red and some of them are blue.
1551197235,ce62ba4b2a3e4b5255b983f90e9121cd,FormBIS,15,0,question10,NULL,ANSWER,There are two types of objects - circles and squares%2C that are either blue or red.
1551197235,ce62ba4b2a3e4b5255b983f90e9121cd,FormBIS,13,0,question8,NULL,ANSWER,There are two types of objects - circles and squares%2C the circles are all blue%2C the squares are either blue or red.
1551197235,ce62ba4b2a3e4b5255b983f90e9121cd,FormBIS,14,0,question9,NULL,ANSWER,There are blue circles and squares.
1551197235,ce62ba4b2a3e4b5255b983f90e9121cd,FormBIS,11,0,question6,NULL,ANSWER,There are red circles and squares.
1551197235,ce62ba4b2a3e4b5255b983f90e9121cd,FormBIS,7,0,question2,NULL,ANSWER,There are blue circles and squares. 
1551197235,ce62ba4b2a3e4b5255b983f90e9121cd,FormBIS,8,0,question3,NULL,ANSWER,There are red or blue squares and blue circles.
1551197235,ce62ba4b2a3e4b5255b983f90e9121cd,FormBIS,12,0,question7,NULL,ANSWER,There are red circles and blue squares.
1551197235,ce62ba4b2a3e4b5255b983f90e9121cd,FormBIS,9,0,question4,NULL,ANSWER,There are red or blue circles and squares.
#
# Results on Tuesday February 26 2019 23:31:33 UTC.
# USER AGENT: Mozilla/5.0 (Windows NT 10.0; Win64; x64) AppleWebKit/537.36 (KHTML, like Gecko) Chrome/72.0.3626.119 Safari/537.36
# Design number was non-random = 4
#
# Columns below this comment are as follows:
# 1. Time results were received.
# 2. MD5 hash of participant's IP address.
# 3. Controller name.
# 4. Item number.
# 5. Element number.
# 6. Type.
# 7. Group.
# 8. Field name.
# 9. Field value.
1551223893,42aef0e21015e1c47de06483bcea0365,Form,1,0,intro,NULL,age,48
1551223893,42aef0e21015e1c47de06483bcea0365,Form,1,0,intro,NULL,consent,yes
1551223893,42aef0e21015e1c47de06483bcea0365,Form,1,0,intro,NULL,sex,male
1551223893,42aef0e21015e1c47de06483bcea0365,Form,1,0,intro,NULL,english,native
1551223893,42aef0e21015e1c47de06483bcea0365,Form,1,0,intro,NULL,education,bachelor
1551223893,42aef0e21015e1c47de06483bcea0365,FormBIS,6,0,1question,NULL,ANSWER,All objects are squares
1551223893,42aef0e21015e1c47de06483bcea0365,FormBIS,10,0,question5,NULL,ANSWER,All objects are red circles%2C except for two blue circles.
1551223893,42aef0e21015e1c47de06483bcea0365,FormBIS,8,0,question3,NULL,ANSWER,There are two red squares%2C two blue squares%2C and five blue circles.
1551223893,42aef0e21015e1c47de06483bcea0365,FormBIS,9,0,question4,NULL,ANSWER,There are red squares and circles and blue squares and circles.
1551223893,42aef0e21015e1c47de06483bcea0365,FormBIS,13,0,question8,NULL,ANSWER,There are red squares%2C blue squares%2C and blue circles.
1551223893,42aef0e21015e1c47de06483bcea0365,FormBIS,7,0,question2,NULL,ANSWER,There are blue squares and circles.
1551223893,42aef0e21015e1c47de06483bcea0365,FormBIS,11,0,question6,NULL,ANSWER,There are red squares and circles.
1551223893,42aef0e21015e1c47de06483bcea0365,FormBIS,15,0,question10,NULL,ANSWER,There are blue squares and circles and a red square and circle.
1551223893,42aef0e21015e1c47de06483bcea0365,FormBIS,14,0,question9,NULL,ANSWER,There are blue squares and a circle.
1551223893,42aef0e21015e1c47de06483bcea0365,FormBIS,12,0,question7,NULL,ANSWER,There are blue squares and red circles.
#
# Results on Wednesday February 27 2019 11:25:53 UTC.
# USER AGENT: Mozilla/5.0 (Windows NT 10.0; Win64; x64) AppleWebKit/537.36 (KHTML, like Gecko) Chrome/71.0.3578.98 Safari/537.36 OPR/58.0.3135.68
# Design number was non-random = 5
#
# Columns below this comment are as follows:
# 1. Time results were received.
# 2. MD5 hash of participant's IP address.
# 3. Controller name.
# 4. Item number.
# 5. Element number.
# 6. Type.
# 7. Group.
# 8. Field name.
# 9. Field value.
1551266753,ddd2bd7456559824e7c05b3d166b751f,Form,1,0,intro,NULL,age,21
1551266753,ddd2bd7456559824e7c05b3d166b751f,Form,1,0,intro,NULL,consent,yes
1551266753,ddd2bd7456559824e7c05b3d166b751f,Form,1,0,intro,NULL,sex,male
1551266753,ddd2bd7456559824e7c05b3d166b751f,Form,1,0,intro,NULL,english,fluent
1551266753,ddd2bd7456559824e7c05b3d166b751f,Form,1,0,intro,NULL,education,bachelor
1551266753,ddd2bd7456559824e7c05b3d166b751f,FormBIS,6,0,1question,NULL,ANSWER,red blocks
1551266753,ddd2bd7456559824e7c05b3d166b751f,FormBIS,12,0,question7,NULL,ANSWER,blue blocks red circles
1551266753,ddd2bd7456559824e7c05b3d166b751f,FormBIS,13,0,question8,NULL,ANSWER,blue and red blocks and circles
1551266753,ddd2bd7456559824e7c05b3d166b751f,FormBIS,9,0,question4,NULL,ANSWER,blue blocks red circles
1551266753,ddd2bd7456559824e7c05b3d166b751f,FormBIS,14,0,question9,NULL,ANSWER,blue blocks and circles
1551266753,ddd2bd7456559824e7c05b3d166b751f,FormBIS,11,0,question6,NULL,ANSWER,red blocks and circles
1551266753,ddd2bd7456559824e7c05b3d166b751f,FormBIS,10,0,question5,NULL,ANSWER,blue and red circles
1551266753,ddd2bd7456559824e7c05b3d166b751f,FormBIS,7,0,question2,NULL,ANSWER,blue blocks and circles
1551266753,ddd2bd7456559824e7c05b3d166b751f,FormBIS,15,0,question10,NULL,ANSWER,blue and red boxes and circles
1551266753,ddd2bd7456559824e7c05b3d166b751f,FormBIS,8,0,question3,NULL,ANSWER,blue and red boxes and circles
#
# Results on Thursday February 28 2019 16:48:22 UTC.
# USER AGENT: Mozilla/5.0 (X11; Linux x86_64) AppleWebKit/537.36 (KHTML, like Gecko) Ubuntu Chromium/71.0.3578.98 Chrome/71.0.3578.98 Safari/537.36
# Design number was non-random = 6
#
# Columns below this comment are as follows:
# 1. Time results were received.
# 2. MD5 hash of participant's IP address.
# 3. Controller name.
# 4. Item number.
# 5. Element number.
# 6. Type.
# 7. Group.
# 8. Field name.
# 9. Field value.
1551372502,b7644ee73a659596e844d9bb44889f8a,Form,1,0,intro,NULL,age,32
1551372502,b7644ee73a659596e844d9bb44889f8a,Form,1,0,intro,NULL,consent,yes
1551372502,b7644ee73a659596e844d9bb44889f8a,Form,1,0,intro,NULL,sex,male
1551372502,b7644ee73a659596e844d9bb44889f8a,Form,1,0,intro,NULL,english,fluent
1551372502,b7644ee73a659596e844d9bb44889f8a,Form,1,0,intro,NULL,education,bachelor
1551372502,b7644ee73a659596e844d9bb44889f8a,FormBIS,6,0,1question,NULL,ANSWER,All objects are red squares
1551372502,b7644ee73a659596e844d9bb44889f8a,FormBIS,7,0,question2,NULL,ANSWER,Most of the objects are blue squares. A few objects are blue circles
1551372502,b7644ee73a659596e844d9bb44889f8a,FormBIS,13,0,question8,NULL,ANSWER,The majority of objects are red squares. There are couple of blue circles and a blue square
1551372502,b7644ee73a659596e844d9bb44889f8a,FormBIS,8,0,question3,NULL,ANSWER,Almost half of the objects are blue circles. There are a couple of blue and red squares
1551372502,b7644ee73a659596e844d9bb44889f8a,FormBIS,12,0,question7,NULL,ANSWER,The majority of objects are red circles and there are a few blue squares
1551372502,b7644ee73a659596e844d9bb44889f8a,FormBIS,9,0,question4,NULL,ANSWER,There are some blue and red squares%2C a few red circles and a blue circle
1551372502,b7644ee73a659596e844d9bb44889f8a,FormBIS,10,0,question5,NULL,ANSWER,All of the objects are circles which are mostly red and only a few are blue
1551372502,b7644ee73a659596e844d9bb44889f8a,FormBIS,14,0,question9,NULL,ANSWER,Almost all of the objects are blue squares%2C there is a single blue circle
1551372502,b7644ee73a659596e844d9bb44889f8a,FormBIS,15,0,question10,NULL,ANSWER,The big majority of objects are blue circles%2C there also is a blue and red square and a red circle
1551372502,b7644ee73a659596e844d9bb44889f8a,FormBIS,11,0,question6,NULL,ANSWER,Most objects are red squares the rest are red circles
#
# Results on Friday March 01 2019 09:34:38 UTC.
# USER AGENT: Mozilla/5.0 (Windows NT 10.0; Win64; x64) AppleWebKit/537.36 (KHTML, like Gecko) Chrome/72.0.3626.109 Safari/537.36
# Design number was non-random = 7
#
# Columns below this comment are as follows:
# 1. Time results were received.
# 2. MD5 hash of participant's IP address.
# 3. Controller name.
# 4. Item number.
# 5. Element number.
# 6. Type.
# 7. Group.
# 8. Field name.
# 9. Field value.
1551432879,725789612d8576b8971ff8cad268894c,Form,1,0,intro,NULL,age,29
1551432879,725789612d8576b8971ff8cad268894c,Form,1,0,intro,NULL,consent,yes
1551432879,725789612d8576b8971ff8cad268894c,Form,1,0,intro,NULL,sex,female
1551432879,725789612d8576b8971ff8cad268894c,Form,1,0,intro,NULL,english,native
1551432879,725789612d8576b8971ff8cad268894c,Form,1,0,intro,NULL,education,master
1551432879,725789612d8576b8971ff8cad268894c,FormBIS,6,0,1question,NULL,ANSWER,All shapes are red squares.
1551432879,725789612d8576b8971ff8cad268894c,FormBIS,9,0,question4,NULL,ANSWER,There are a mixture of circles and squares in red and blue.
1551432879,725789612d8576b8971ff8cad268894c,FormBIS,13,0,question8,NULL,ANSWER,You will see a combination of blue and red squares%2C and blue circles.%0A
1551432879,725789612d8576b8971ff8cad268894c,FormBIS,11,0,question6,NULL,ANSWER,The only colour is red and the shapes shown are circles and squares.
1551432879,725789612d8576b8971ff8cad268894c,FormBIS,15,0,question10,NULL,ANSWER,The primary shape and colour are blue circles and squares with a few red circles and squares in there as well.
1551432879,725789612d8576b8971ff8cad268894c,FormBIS,8,0,question3,NULL,ANSWER,There are a variety of circles and squares in different colours (red and blue).
1551432879,725789612d8576b8971ff8cad268894c,FormBIS,12,0,question7,NULL,ANSWER,Mostly red circles with some blue squares.
1551432879,725789612d8576b8971ff8cad268894c,FormBIS,14,0,question9,NULL,ANSWER,All blue shapes consisting of circles and squares.
1551432879,725789612d8576b8971ff8cad268894c,FormBIS,7,0,question2,NULL,ANSWER,All of the circles and squares are blue.
1551432879,725789612d8576b8971ff8cad268894c,FormBIS,10,0,question5,NULL,ANSWER,There are a mix of red and blue circles.
#
# Results on Friday March 01 2019 17:47:39 UTC.
# USER AGENT: Mozilla/5.0 (iPad; CPU OS 12_1 like Mac OS X) AppleWebKit/605.1.15 (KHTML, like Gecko) Version/12.0 Mobile/15E148 Safari/604.1
# Design number was non-random = 8
#
# Columns below this comment are as follows:
# 1. Time results were received.
# 2. MD5 hash of participant's IP address.
# 3. Controller name.
# 4. Item number.
# 5. Element number.
# 6. Type.
# 7. Group.
# 8. Field name.
# 9. Field value.
1551462459,5e48a56045954743feb38666a0edb654,Form,1,0,intro,NULL,age,23
1551462459,5e48a56045954743feb38666a0edb654,Form,1,0,intro,NULL,consent,yes
1551462459,5e48a56045954743feb38666a0edb654,Form,1,0,intro,NULL,sex,female
1551462459,5e48a56045954743feb38666a0edb654,Form,1,0,intro,NULL,english,native
1551462459,5e48a56045954743feb38666a0edb654,Form,1,0,intro,NULL,education,bachelor
1551462459,5e48a56045954743feb38666a0edb654,FormBIS,6,0,1question,NULL,ANSWER,All objects are red squares 
1551462459,5e48a56045954743feb38666a0edb654,FormBIS,12,0,question7,NULL,ANSWER,Most objects are red circles spread across the page and some are blue squares which are close together
1551462459,5e48a56045954743feb38666a0edb654,FormBIS,14,0,question9,NULL,ANSWER,All objects are blue squares except for one blue circle
1551462459,5e48a56045954743feb38666a0edb654,FormBIS,9,0,question4,NULL,ANSWER,There are a mix of blue and red squares and blue and red circles. There are more blue and red squares than blue and red circles.
1551462459,5e48a56045954743feb38666a0edb654,FormBIS,8,0,question3,NULL,ANSWER,Most objects are blue circles and there are a few red and blue squares 
1551462459,5e48a56045954743feb38666a0edb654,FormBIS,13,0,question8,NULL,ANSWER,There’s are many red squares and only a couple blue circles and squares.
1551462459,5e48a56045954743feb38666a0edb654,FormBIS,11,0,question6,NULL,ANSWER,All objects are red; there are more squares than circles
1551462459,5e48a56045954743feb38666a0edb654,FormBIS,7,0,question2,NULL,ANSWER,All objects are blue; there are many more squares than circles.
1551462459,5e48a56045954743feb38666a0edb654,FormBIS,10,0,question5,NULL,ANSWER,All objects are circles;there are many more red objects than blue.
1551462459,5e48a56045954743feb38666a0edb654,FormBIS,15,0,question10,NULL,ANSWER,The majority of objects are blue circles. Of the red objects%2C there is one of each shape. There are not many blue squares.
#
# Results on Saturday March 02 2019 16:12:13 UTC.
# USER AGENT: Mozilla/5.0 (Macintosh; Intel Mac OS X 10_14_0) AppleWebKit/537.36 (KHTML, like Gecko) Chrome/72.0.3626.119 Safari/537.36
# Design number was non-random = 9
#
# Columns below this comment are as follows:
# 1. Time results were received.
# 2. MD5 hash of participant's IP address.
# 3. Controller name.
# 4. Item number.
# 5. Element number.
# 6. Type.
# 7. Group.
# 8. Field name.
# 9. Field value.
1551543133,8cceadff03e754840eb6d363855045fa,Form,1,0,intro,NULL,age,33
1551543133,8cceadff03e754840eb6d363855045fa,Form,1,0,intro,NULL,consent,yes
1551543133,8cceadff03e754840eb6d363855045fa,Form,1,0,intro,NULL,sex,male
1551543133,8cceadff03e754840eb6d363855045fa,Form,1,0,intro,NULL,english,fluent
1551543133,8cceadff03e754840eb6d363855045fa,Form,1,0,intro,NULL,education,bachelor
1551543133,8cceadff03e754840eb6d363855045fa,FormBIS,6,0,1question,NULL,ANSWER,All of the squares are red
1551543133,8cceadff03e754840eb6d363855045fa,FormBIS,15,0,question10,NULL,ANSWER,There is only one red circle and one red square%2C all the others are blue. Of all the blue items%2C only one is square.
1551543133,8cceadff03e754840eb6d363855045fa,FormBIS,9,0,question4,NULL,ANSWER,The number of squares are devided equally in color. For the circles%2C there is only one that is blue%2C the others are red.
1551543133,8cceadff03e754840eb6d363855045fa,FormBIS,11,0,question6,NULL,ANSWER,All items are red%2C however one third of the items are circles%2C the rest is square.
1551543133,8cceadff03e754840eb6d363855045fa,FormBIS,10,0,question5,NULL,ANSWER,All items are circles. Two of those are colored blue.
1551543133,8cceadff03e754840eb6d363855045fa,FormBIS,12,0,question7,NULL,ANSWER,All squares are blue. All circles are red.
1551543133,8cceadff03e754840eb6d363855045fa,FormBIS,13,0,question8,NULL,ANSWER,All red items are square%2C one of the blue items is square. The two other blue items are circles.
1551543133,8cceadff03e754840eb6d363855045fa,FormBIS,8,0,question3,NULL,ANSWER,Both red items are square%2C that is an equal amount of the number of blue squares. 
1551543133,8cceadff03e754840eb6d363855045fa,FormBIS,7,0,question2,NULL,ANSWER,There are only blue items on the board and only two of them are rounded.
1551543133,8cceadff03e754840eb6d363855045fa,FormBIS,14,0,question9,NULL,ANSWER,The blue circle is lonely amongst all the similar coloured squares.
#
# Results on Saturday March 02 2019 17:00:08 UTC.
# USER AGENT: Mozilla/5.0 (Macintosh; Intel Mac OS X 10_13_6) AppleWebKit/605.1.15 (KHTML, like Gecko) Version/11.1.2 Safari/605.1.15
# Design number was non-random = 10
#
# Columns below this comment are as follows:
# 1. Time results were received.
# 2. MD5 hash of participant's IP address.
# 3. Controller name.
# 4. Item number.
# 5. Element number.
# 6. Type.
# 7. Group.
# 8. Field name.
# 9. Field value.
1551546009,b21c0db02f871298a01f9ca495644895,Form,1,0,intro,NULL,age,21
1551546009,b21c0db02f871298a01f9ca495644895,Form,1,0,intro,NULL,consent,yes
1551546009,b21c0db02f871298a01f9ca495644895,Form,1,0,intro,NULL,sex,female
1551546009,b21c0db02f871298a01f9ca495644895,Form,1,0,intro,NULL,english,native
1551546009,b21c0db02f871298a01f9ca495644895,Form,1,0,intro,NULL,education,bachelor
1551546009,b21c0db02f871298a01f9ca495644895,FormBIS,6,0,1question,NULL,ANSWER,all objects are red squares
1551546009,b21c0db02f871298a01f9ca495644895,FormBIS,9,0,question4,NULL,ANSWER,4 blue objects%2C 3 squares and 1 circle%0A5 red objects%2C 3 squares and 2 circles
1551546009,b21c0db02f871298a01f9ca495644895,FormBIS,15,0,question10,NULL,ANSWER,2 red objects%2C 1 square and 1 circle%0A7 blue objects%2C 1 square and 6 circles
1551546009,b21c0db02f871298a01f9ca495644895,FormBIS,7,0,question2,NULL,ANSWER,all objects are blue%2C 2 circles and 7 squares
1551546009,b21c0db02f871298a01f9ca495644895,FormBIS,12,0,question7,NULL,ANSWER,7 red circles%0A2 blue squares
1551546009,b21c0db02f871298a01f9ca495644895,FormBIS,10,0,question5,NULL,ANSWER,7 red circles%0A2 blue circles
1551546009,b21c0db02f871298a01f9ca495644895,FormBIS,8,0,question3,NULL,ANSWER,2 red squares%0A7 blue objects%2C 2 squares and 5 circles
1551546009,b21c0db02f871298a01f9ca495644895,FormBIS,13,0,question8,NULL,ANSWER,6 red squares%0A1 blue square%2C 2 blue circles
1551546009,b21c0db02f871298a01f9ca495644895,FormBIS,14,0,question9,NULL,ANSWER,all objects are blue%2C 1 circle and 8 squares
1551546009,b21c0db02f871298a01f9ca495644895,FormBIS,11,0,question6,NULL,ANSWER,all objects are red%2C 3 circles and 6 squares
#
# Results on Saturday March 02 2019 19:14:20 UTC.
# USER AGENT: Mozilla/5.0 (Windows NT 10.0; Win64; x64; rv:65.0) Gecko/20100101 Firefox/65.0
# Design number was non-random = 11
#
# Columns below this comment are as follows:
# 1. Time results were received.
# 2. MD5 hash of participant's IP address.
# 3. Controller name.
# 4. Item number.
# 5. Element number.
# 6. Type.
# 7. Group.
# 8. Field name.
# 9. Field value.
1551554061,ccd54828e7f904b479f9497ea662adeb,Form,1,0,intro,NULL,age,44
1551554061,ccd54828e7f904b479f9497ea662adeb,Form,1,0,intro,NULL,consent,yes
1551554061,ccd54828e7f904b479f9497ea662adeb,Form,1,0,intro,NULL,sex,female
1551554061,ccd54828e7f904b479f9497ea662adeb,Form,1,0,intro,NULL,english,native
1551554061,ccd54828e7f904b479f9497ea662adeb,Form,1,0,intro,NULL,education,bachelor
1551554061,ccd54828e7f904b479f9497ea662adeb,FormBIS,6,0,1question,NULL,ANSWER,All objects are red squares
1551554061,ccd54828e7f904b479f9497ea662adeb,FormBIS,7,0,question2,NULL,ANSWER,Two objects are blue circles%2C the rest are blue squares.
1551554061,ccd54828e7f904b479f9497ea662adeb,FormBIS,13,0,question8,NULL,ANSWER,Two objects are blue circle%2C one object is a blue square and the rest are red squares.
1551554061,ccd54828e7f904b479f9497ea662adeb,FormBIS,8,0,question3,NULL,ANSWER,Two objects are red squares%2C two objects are blue squares and the remainder are blue circles.
1551554061,ccd54828e7f904b479f9497ea662adeb,FormBIS,14,0,question9,NULL,ANSWER,All objects%2C aside of a blue circle%2C are blue squares.
1551554061,ccd54828e7f904b479f9497ea662adeb,FormBIS,9,0,question4,NULL,ANSWER,Three objects are blue square%2C three objects are red sqaures%2C two objects are red circles and the final object is a blue circle.
1551554061,ccd54828e7f904b479f9497ea662adeb,FormBIS,11,0,question6,NULL,ANSWER,All objects are red%2C three are circles and the remainder are squares
1551554061,ccd54828e7f904b479f9497ea662adeb,FormBIS,15,0,question10,NULL,ANSWER,Seven objects are circles - one red and six blue.  Two objects are squares - one blue and one red. 
1551554061,ccd54828e7f904b479f9497ea662adeb,FormBIS,10,0,question5,NULL,ANSWER,All objects are circles%2C two blue with the remainder being red.
1551554061,ccd54828e7f904b479f9497ea662adeb,FormBIS,12,0,question7,NULL,ANSWER,All circles are red and all squares are blue.
#
# Results on Monday March 04 2019 18:02:48 UTC.
# USER AGENT: Mozilla/5.0 (Windows NT 10.0; Win64; x64; rv:65.0) Gecko/20100101 Firefox/65.0
# Design number was non-random = 12
#
# Columns below this comment are as follows:
# 1. Time results were received.
# 2. MD5 hash of participant's IP address.
# 3. Controller name.
# 4. Item number.
# 5. Element number.
# 6. Type.
# 7. Group.
# 8. Field name.
# 9. Field value.
1551722568,9c7c9396ed53371c990c96df5d0ea5f9,Form,1,0,intro,NULL,age,18
1551722568,9c7c9396ed53371c990c96df5d0ea5f9,Form,1,0,intro,NULL,consent,yes
1551722568,9c7c9396ed53371c990c96df5d0ea5f9,Form,1,0,intro,NULL,sex,other
1551722568,9c7c9396ed53371c990c96df5d0ea5f9,Form,1,0,intro,NULL,english,fluent
1551722568,9c7c9396ed53371c990c96df5d0ea5f9,Form,1,0,intro,NULL,education,highschool
1551722568,9c7c9396ed53371c990c96df5d0ea5f9,FormBIS,6,0,1question,NULL,ANSWER,All objects are red
1551722568,9c7c9396ed53371c990c96df5d0ea5f9,FormBIS,8,0,question3,NULL,ANSWER,There are more blue objects than there are red ones.
1551722568,9c7c9396ed53371c990c96df5d0ea5f9,FormBIS,14,0,question9,NULL,ANSWER,All objects are blue.
1551722568,9c7c9396ed53371c990c96df5d0ea5f9,FormBIS,13,0,question8,NULL,ANSWER,There are more red objects than there are blue ones.
1551722568,9c7c9396ed53371c990c96df5d0ea5f9,FormBIS,7,0,question2,NULL,ANSWER,All objects are blue.
1551722568,9c7c9396ed53371c990c96df5d0ea5f9,FormBIS,11,0,question6,NULL,ANSWER,All objects are red.
1551722568,9c7c9396ed53371c990c96df5d0ea5f9,FormBIS,15,0,question10,NULL,ANSWER,There are more red object than blue objects.
1551722568,9c7c9396ed53371c990c96df5d0ea5f9,FormBIS,10,0,question5,NULL,ANSWER,There are less blue objects than there are red ones.
1551722568,9c7c9396ed53371c990c96df5d0ea5f9,FormBIS,12,0,question7,NULL,ANSWER,There are a lot of red objects and only a few blue ones.
1551722568,9c7c9396ed53371c990c96df5d0ea5f9,FormBIS,9,0,question4,NULL,ANSWER,The red objects outnumber the blue ones.
#
# Results on Tuesday March 05 2019 06:52:29 UTC.
# USER AGENT: Mozilla/5.0 (Macintosh; Intel Mac OS X 10_10_5) AppleWebKit/537.36 (KHTML, like Gecko) Chrome/72.0.3626.109 Safari/537.36
# Design number was non-random = 13
#
# Columns below this comment are as follows:
# 1. Time results were received.
# 2. MD5 hash of participant's IP address.
# 3. Controller name.
# 4. Item number.
# 5. Element number.
# 6. Type.
# 7. Group.
# 8. Field name.
# 9. Field value.
1551768749,a27a2fbf46037085fb7e022e7ebbe29e,Form,1,0,intro,NULL,age,65
1551768749,a27a2fbf46037085fb7e022e7ebbe29e,Form,1,0,intro,NULL,consent,yes
1551768749,a27a2fbf46037085fb7e022e7ebbe29e,Form,1,0,intro,NULL,sex,male
1551768749,a27a2fbf46037085fb7e022e7ebbe29e,Form,1,0,intro,NULL,english,fluent
1551768749,a27a2fbf46037085fb7e022e7ebbe29e,Form,1,0,intro,NULL,education,phd
1551768749,a27a2fbf46037085fb7e022e7ebbe29e,FormBIS,6,0,1question,NULL,ANSWER,all objects are red squares. there is one group in a line.
1551768749,a27a2fbf46037085fb7e022e7ebbe29e,FormBIS,10,0,question5,NULL,ANSWER,two blue dots are different and form a minority
1551768749,a27a2fbf46037085fb7e022e7ebbe29e,FormBIS,13,0,question8,NULL,ANSWER,the reds are all squares%2C the blues are mixed
1551768749,a27a2fbf46037085fb7e022e7ebbe29e,FormBIS,11,0,question6,NULL,ANSWER,all are red%2C and can be of two kinds%2C like males and females
1551768749,a27a2fbf46037085fb7e022e7ebbe29e,FormBIS,7,0,question2,NULL,ANSWER,all are blue%2C but two are dots
1551768749,a27a2fbf46037085fb7e022e7ebbe29e,FormBIS,9,0,question4,NULL,ANSWER,this is a mixed bag
1551768749,a27a2fbf46037085fb7e022e7ebbe29e,FormBIS,15,0,question10,NULL,ANSWER,two reds in a sea of blues
1551768749,a27a2fbf46037085fb7e022e7ebbe29e,FormBIS,14,0,question9,NULL,ANSWER,all are blue squares but one is a lonely dot
1551768749,a27a2fbf46037085fb7e022e7ebbe29e,FormBIS,8,0,question3,NULL,ANSWER,a minority of red squares in a sea of mixed blues
1551768749,a27a2fbf46037085fb7e022e7ebbe29e,FormBIS,12,0,question7,NULL,ANSWER,a minority of blue squares sit in a majority of red dots
#
# Results on Wednesday March 06 2019 10:13:46 UTC.
# USER AGENT: Mozilla/5.0 (X11; Linux x86_64) AppleWebKit/537.36 (KHTML, like Gecko) Chrome/70.0.3538.77 Safari/537.36
# Design number was non-random = 14
#
# Columns below this comment are as follows:
# 1. Time results were received.
# 2. MD5 hash of participant's IP address.
# 3. Controller name.
# 4. Item number.
# 5. Element number.
# 6. Type.
# 7. Group.
# 8. Field name.
# 9. Field value.
1551867227,ae7d8f949c3a5b0eb8f7b317d6b5a23f,Form,1,0,intro,NULL,age,31
1551867227,ae7d8f949c3a5b0eb8f7b317d6b5a23f,Form,1,0,intro,NULL,consent,yes
1551867227,ae7d8f949c3a5b0eb8f7b317d6b5a23f,Form,1,0,intro,NULL,sex,male
1551867227,ae7d8f949c3a5b0eb8f7b317d6b5a23f,Form,1,0,intro,NULL,english,fluent
1551867227,ae7d8f949c3a5b0eb8f7b317d6b5a23f,Form,1,0,intro,NULL,education,master
1551867227,ae7d8f949c3a5b0eb8f7b317d6b5a23f,FormBIS,6,0,1question,NULL,ANSWER,All objects are red squares.
1551867227,ae7d8f949c3a5b0eb8f7b317d6b5a23f,FormBIS,13,0,question8,NULL,ANSWER,Mostly red squares with some blue circles and a blue square
1551867227,ae7d8f949c3a5b0eb8f7b317d6b5a23f,FormBIS,14,0,question9,NULL,ANSWER,All blue%2C one circle
1551867227,ae7d8f949c3a5b0eb8f7b317d6b5a23f,FormBIS,10,0,question5,NULL,ANSWER,All objects are circles%2C some are blue
1551867227,ae7d8f949c3a5b0eb8f7b317d6b5a23f,FormBIS,11,0,question6,NULL,ANSWER,Red squares and triangles%2C a bit more squares
1551867227,ae7d8f949c3a5b0eb8f7b317d6b5a23f,FormBIS,7,0,question2,NULL,ANSWER,Blue squares and circles%2C a bit more squares
1551867227,ae7d8f949c3a5b0eb8f7b317d6b5a23f,FormBIS,9,0,question4,NULL,ANSWER,A healthy mix of all shapes & colors%2C a bit more squares.
1551867227,ae7d8f949c3a5b0eb8f7b317d6b5a23f,FormBIS,12,0,question7,NULL,ANSWER,Circles are red%2C squares are blue%2C i love you!
1551867227,ae7d8f949c3a5b0eb8f7b317d6b5a23f,FormBIS,15,0,question10,NULL,ANSWER,Mostly blue%2C Mostly circles
1551867227,ae7d8f949c3a5b0eb8f7b317d6b5a23f,FormBIS,8,0,question3,NULL,ANSWER,Blue circles and squares with a couple red squares
#
# Results on Wednesday March 06 2019 18:03:10 UTC.
# USER AGENT: Mozilla/5.0 (Macintosh; Intel Mac OS X 10_11_1) AppleWebKit/537.36 (KHTML, like Gecko) Chrome/71.0.3578.98 Safari/537.36
# Design number was non-random = 15
#
# Columns below this comment are as follows:
# 1. Time results were received.
# 2. MD5 hash of participant's IP address.
# 3. Controller name.
# 4. Item number.
# 5. Element number.
# 6. Type.
# 7. Group.
# 8. Field name.
# 9. Field value.
1551895390,ae0fcac9906f7133806d61e13e132552,Form,1,0,intro,NULL,age,22
1551895390,ae0fcac9906f7133806d61e13e132552,Form,1,0,intro,NULL,consent,yes
1551895390,ae0fcac9906f7133806d61e13e132552,Form,1,0,intro,NULL,sex,male
1551895390,ae0fcac9906f7133806d61e13e132552,Form,1,0,intro,NULL,english,native
1551895390,ae0fcac9906f7133806d61e13e132552,Form,1,0,intro,NULL,education,bachelor
1551895390,ae0fcac9906f7133806d61e13e132552,FormBIS,6,0,1question,NULL,ANSWER,The objects are red squares
1551895390,ae0fcac9906f7133806d61e13e132552,FormBIS,13,0,question8,NULL,ANSWER,The objects are mostly red squares with a few blue shapes 
1551895390,ae0fcac9906f7133806d61e13e132552,FormBIS,15,0,question10,NULL,ANSWER,There is mostly blue circles but there is also red objects and a blue square
1551895390,ae0fcac9906f7133806d61e13e132552,FormBIS,14,0,question9,NULL,ANSWER,All the objects are blue squares except one 
1551895390,ae0fcac9906f7133806d61e13e132552,FormBIS,11,0,question6,NULL,ANSWER,All the objects are red and there is a mix of squares and circles 
1551895390,ae0fcac9906f7133806d61e13e132552,FormBIS,10,0,question5,NULL,ANSWER,there are mostly red circles with a few blue circles 
1551895390,ae0fcac9906f7133806d61e13e132552,FormBIS,12,0,question7,NULL,ANSWER,There are mostly red circles with a few blue squares
1551895390,ae0fcac9906f7133806d61e13e132552,FormBIS,9,0,question4,NULL,ANSWER,there is a mix of both squares and circles%2C they are both red and blue
1551895390,ae0fcac9906f7133806d61e13e132552,FormBIS,8,0,question3,NULL,ANSWER,There are mostly blue shapes with a couple of red squares
1551895390,ae0fcac9906f7133806d61e13e132552,FormBIS,7,0,question2,NULL,ANSWER,All the objects are blue and most are squares
#
# Results on Wednesday March 06 2019 20:49:27 UTC.
# USER AGENT: Mozilla/5.0 (X11; CrOS x86_64 11316.148.0) AppleWebKit/537.36 (KHTML, like Gecko) Chrome/72.0.3626.117 Safari/537.36
# Design number was non-random = 16
#
# Columns below this comment are as follows:
# 1. Time results were received.
# 2. MD5 hash of participant's IP address.
# 3. Controller name.
# 4. Item number.
# 5. Element number.
# 6. Type.
# 7. Group.
# 8. Field name.
# 9. Field value.
1551905367,e16c68d74d1ca0e6e997eafecd3c857e,Form,1,0,intro,NULL,age,31
1551905367,e16c68d74d1ca0e6e997eafecd3c857e,Form,1,0,intro,NULL,consent,yes
1551905367,e16c68d74d1ca0e6e997eafecd3c857e,Form,1,0,intro,NULL,sex,male
1551905367,e16c68d74d1ca0e6e997eafecd3c857e,Form,1,0,intro,NULL,english,native
1551905367,e16c68d74d1ca0e6e997eafecd3c857e,Form,1,0,intro,NULL,education,highschool
1551905367,e16c68d74d1ca0e6e997eafecd3c857e,FormBIS,6,0,1question,NULL,ANSWER,all squares are red
1551905367,e16c68d74d1ca0e6e997eafecd3c857e,FormBIS,8,0,question3,NULL,ANSWER,There are squares and circles coloured blue or red
1551905367,e16c68d74d1ca0e6e997eafecd3c857e,FormBIS,11,0,question6,NULL,ANSWER,the red coloured shapes are squares and circles
1551905367,e16c68d74d1ca0e6e997eafecd3c857e,FormBIS,9,0,question4,NULL,ANSWER,there are blue and red squares and circles
1551905367,e16c68d74d1ca0e6e997eafecd3c857e,FormBIS,10,0,question5,NULL,ANSWER,all the shapes are circles with the majority being red
1551905367,e16c68d74d1ca0e6e997eafecd3c857e,FormBIS,7,0,question2,NULL,ANSWER,all the shapes are blue with the majority being squares
1551905367,e16c68d74d1ca0e6e997eafecd3c857e,FormBIS,12,0,question7,NULL,ANSWER,circles are red%2C squares are blue
1551905367,e16c68d74d1ca0e6e997eafecd3c857e,FormBIS,15,0,question10,NULL,ANSWER,some blue and some red squares and circles
1551905367,e16c68d74d1ca0e6e997eafecd3c857e,FormBIS,14,0,question9,NULL,ANSWER,all blue and all but one are squares
1551905367,e16c68d74d1ca0e6e997eafecd3c857e,FormBIS,13,0,question8,NULL,ANSWER,blue and red squares and circles
#
# Results on Wednesday March 06 2019 23:17:00 UTC.
# USER AGENT: Mozilla/5.0 (iPhone; CPU iPhone OS 12_1_4 like Mac OS X) AppleWebKit/605.1.15 (KHTML, like Gecko) Version/12.0 Mobile/15E148 Safari/604.1
# Design number was non-random = 17
#
# Columns below this comment are as follows:
# 1. Time results were received.
# 2. MD5 hash of participant's IP address.
# 3. Controller name.
# 4. Item number.
# 5. Element number.
# 6. Type.
# 7. Group.
# 8. Field name.
# 9. Field value.
1551914221,890dea439a280478b718c13e61a04d48,Form,1,0,intro,NULL,age,21
1551914221,890dea439a280478b718c13e61a04d48,Form,1,0,intro,NULL,consent,yes
1551914221,890dea439a280478b718c13e61a04d48,Form,1,0,intro,NULL,sex,female
1551914221,890dea439a280478b718c13e61a04d48,Form,1,0,intro,NULL,english,native
1551914221,890dea439a280478b718c13e61a04d48,Form,1,0,intro,NULL,education,bachelor
1551914221,890dea439a280478b718c13e61a04d48,FormBIS,6,0,1question,NULL,ANSWER,All red squares 
1551914221,890dea439a280478b718c13e61a04d48,FormBIS,10,0,question5,NULL,ANSWER,Mostly red circles%2C couple of blue circles 
1551914221,890dea439a280478b718c13e61a04d48,FormBIS,8,0,question3,NULL,ANSWER,Couple of red squares%2C mostly blue squares and circles
1551914221,890dea439a280478b718c13e61a04d48,FormBIS,11,0,question6,NULL,ANSWER,Red circles and squares 
1551914221,890dea439a280478b718c13e61a04d48,FormBIS,15,0,question10,NULL,ANSWER,Blue circles and squares%2C red circle%2C red square 
1551914221,890dea439a280478b718c13e61a04d48,FormBIS,12,0,question7,NULL,ANSWER,Couple of blue squares lots of red circles 
1551914221,890dea439a280478b718c13e61a04d48,FormBIS,14,0,question9,NULL,ANSWER,Lots of blue squares%2C a blue circle 
1551914221,890dea439a280478b718c13e61a04d48,FormBIS,9,0,question4,NULL,ANSWER,Mix of blue and red circles and squares
1551914221,890dea439a280478b718c13e61a04d48,FormBIS,7,0,question2,NULL,ANSWER,Couple of blue circles and some blue squares 
1551914221,890dea439a280478b718c13e61a04d48,FormBIS,13,0,question8,NULL,ANSWER,Lots of red squares and a blue square%2C coupe of blue circles 
#
# Results on Thursday March 07 2019 19:26:18 UTC.
# USER AGENT: Mozilla/5.0 (Macintosh; Intel Mac OS X 10.14; rv:65.0) Gecko/20100101 Firefox/65.0
# Design number was non-random = 18
#
# Columns below this comment are as follows:
# 1. Time results were received.
# 2. MD5 hash of participant's IP address.
# 3. Controller name.
# 4. Item number.
# 5. Element number.
# 6. Type.
# 7. Group.
# 8. Field name.
# 9. Field value.
1551986778,78200d547dbe21d24ed751aeb8ed0ded,Form,1,0,intro,NULL,age,26
1551986778,78200d547dbe21d24ed751aeb8ed0ded,Form,1,0,intro,NULL,consent,yes
1551986778,78200d547dbe21d24ed751aeb8ed0ded,Form,1,0,intro,NULL,sex,male
1551986778,78200d547dbe21d24ed751aeb8ed0ded,Form,1,0,intro,NULL,english,fluent
1551986778,78200d547dbe21d24ed751aeb8ed0ded,Form,1,0,intro,NULL,education,bachelor
1551986778,78200d547dbe21d24ed751aeb8ed0ded,FormBIS,6,0,1question,NULL,ANSWER,Every object in the image is a red square.
1551986778,78200d547dbe21d24ed751aeb8ed0ded,FormBIS,8,0,question3,NULL,ANSWER,There are a couple of red squares%2C a couple of blue squares while the rest are blue circles.
1551986778,78200d547dbe21d24ed751aeb8ed0ded,FormBIS,14,0,question9,NULL,ANSWER,Except for one blue circle the objects are blue squares.
1551986778,78200d547dbe21d24ed751aeb8ed0ded,FormBIS,12,0,question7,NULL,ANSWER,While two items are blue squares the rest are red circles.
1551986778,78200d547dbe21d24ed751aeb8ed0ded,FormBIS,7,0,question2,NULL,ANSWER,Of the objects there are two blue squares%2C the rest are blue circles.
1551986778,78200d547dbe21d24ed751aeb8ed0ded,FormBIS,11,0,question6,NULL,ANSWER,Every item is red. Three of them are circles and the rest are squares.
1551986778,78200d547dbe21d24ed751aeb8ed0ded,FormBIS,10,0,question5,NULL,ANSWER,All the items are circles%2C two of them are blue while the rest is red.
1551986778,78200d547dbe21d24ed751aeb8ed0ded,FormBIS,13,0,question8,NULL,ANSWER,Of the square items one is blue. There are also two blue circles.
1551986778,78200d547dbe21d24ed751aeb8ed0ded,FormBIS,9,0,question4,NULL,ANSWER,In this image three out of six squares is blue. On out of three circles is blue.
1551986778,78200d547dbe21d24ed751aeb8ed0ded,FormBIS,15,0,question10,NULL,ANSWER,I see seven circles out of which one is red. There are two squares with on of the colour red.
#
# Results on Friday March 08 2019 14:17:22 UTC.
# USER AGENT: Mozilla/5.0 (Windows NT 10.0; Win64; x64; rv:65.0) Gecko/20100101 Firefox/65.0
# Design number was non-random = 19
#
# Columns below this comment are as follows:
# 1. Time results were received.
# 2. MD5 hash of participant's IP address.
# 3. Controller name.
# 4. Item number.
# 5. Element number.
# 6. Type.
# 7. Group.
# 8. Field name.
# 9. Field value.
1552054643,d7d42d7103307eeefebc77518b75348f,Form,1,0,intro,NULL,age,25
1552054643,d7d42d7103307eeefebc77518b75348f,Form,1,0,intro,NULL,consent,yes
1552054643,d7d42d7103307eeefebc77518b75348f,Form,1,0,intro,NULL,sex,female
1552054643,d7d42d7103307eeefebc77518b75348f,Form,1,0,intro,NULL,english,fluent
1552054643,d7d42d7103307eeefebc77518b75348f,Form,1,0,intro,NULL,education,master
1552054643,d7d42d7103307eeefebc77518b75348f,FormBIS,6,0,1question,NULL,ANSWER,All objects are red squares
1552054643,d7d42d7103307eeefebc77518b75348f,FormBIS,15,0,question10,NULL,ANSWER,9 objects%2C two squares%2C two red objects (square & circle)
1552054643,d7d42d7103307eeefebc77518b75348f,FormBIS,11,0,question6,NULL,ANSWER,9 red objects%2C 6 squares
1552054643,d7d42d7103307eeefebc77518b75348f,FormBIS,10,0,question5,NULL,ANSWER,All objects are round%2C two of them are blue
1552054643,d7d42d7103307eeefebc77518b75348f,FormBIS,9,0,question4,NULL,ANSWER,There are 2 red rounds%2C one blue round%2C 3 blue squares and 9 objects in total 
1552054643,d7d42d7103307eeefebc77518b75348f,FormBIS,8,0,question3,NULL,ANSWER,There are 9 objects in total: all the rounds are blue%2C and there are four squares (two blue and two red)
1552054643,d7d42d7103307eeefebc77518b75348f,FormBIS,14,0,question9,NULL,ANSWER,all objects are blue (just one square)
1552054643,d7d42d7103307eeefebc77518b75348f,FormBIS,13,0,question8,NULL,ANSWER,There are 7 squares and 2 rounds. The two rounds are blue%2C and one square is blue
1552054643,d7d42d7103307eeefebc77518b75348f,FormBIS,7,0,question2,NULL,ANSWER,all objects are blue%2C and there are 2 rounds
1552054643,d7d42d7103307eeefebc77518b75348f,FormBIS,12,0,question7,NULL,ANSWER,There are seven red rounds and 2 blue squares
#
# Results on Friday March 08 2019 16:13:57 UTC.
# USER AGENT: Mozilla/5.0 (Windows NT 10.0; Win64; x64; rv:65.0) Gecko/20100101 Firefox/65.0
# Design number was non-random = 20
#
# Columns below this comment are as follows:
# 1. Time results were received.
# 2. MD5 hash of participant's IP address.
# 3. Controller name.
# 4. Item number.
# 5. Element number.
# 6. Type.
# 7. Group.
# 8. Field name.
# 9. Field value.
1552061637,9be8952bb7440e2fe125129494802abe,Form,1,0,intro,NULL,age,30
1552061637,9be8952bb7440e2fe125129494802abe,Form,1,0,intro,NULL,consent,yes
1552061637,9be8952bb7440e2fe125129494802abe,Form,1,0,intro,NULL,sex,male
1552061637,9be8952bb7440e2fe125129494802abe,Form,1,0,intro,NULL,english,fluent
1552061637,9be8952bb7440e2fe125129494802abe,Form,1,0,intro,NULL,education,phd
1552061637,9be8952bb7440e2fe125129494802abe,FormBIS,6,0,1question,NULL,ANSWER,All objects are red squares
1552061637,9be8952bb7440e2fe125129494802abe,FormBIS,15,0,question10,NULL,ANSWER,Most objects are blue circles. A red circle and a red square are also present.
1552061637,9be8952bb7440e2fe125129494802abe,FormBIS,9,0,question4,NULL,ANSWER,One third of the objects are red squares%2C and there is an equal amount of blue squares. Two of the objects are red circles.
1552061637,9be8952bb7440e2fe125129494802abe,FormBIS,11,0,question6,NULL,ANSWER,All objects are red%2C of which three are circles.
1552061637,9be8952bb7440e2fe125129494802abe,FormBIS,10,0,question5,NULL,ANSWER,All objects are circles%2C of which two are blue.
1552061637,9be8952bb7440e2fe125129494802abe,FormBIS,13,0,question8,NULL,ANSWER,Two thirds of the objects are red squares. The remaining objects are blue%2C of which two are circles.
1552061637,9be8952bb7440e2fe125129494802abe,FormBIS,12,0,question7,NULL,ANSWER,All objects are red circles%2C except for two blue squares.
1552061637,9be8952bb7440e2fe125129494802abe,FormBIS,14,0,question9,NULL,ANSWER,One object is a circle. All objects are blue.
1552061637,9be8952bb7440e2fe125129494802abe,FormBIS,7,0,question2,NULL,ANSWER,Of the objects%2C which are all blue%2C two are circles.
1552061637,9be8952bb7440e2fe125129494802abe,FormBIS,8,0,question3,NULL,ANSWER,There is an equal amount of blue and red squares. The remaining objects are five blue circles.
#
# Results on Saturday March 09 2019 18:33:58 UTC.
# USER AGENT: Mozilla/5.0 (Windows NT 10.0; Win64; x64) AppleWebKit/537.36 (KHTML, like Gecko) Chrome/72.0.3626.121 Safari/537.36
# Design number was non-random = 21
#
# Columns below this comment are as follows:
# 1. Time results were received.
# 2. MD5 hash of participant's IP address.
# 3. Controller name.
# 4. Item number.
# 5. Element number.
# 6. Type.
# 7. Group.
# 8. Field name.
# 9. Field value.
1552156438,5cd8b618456f6bebc8e94f73598a7897,Form,1,0,intro,NULL,age,20
1552156438,5cd8b618456f6bebc8e94f73598a7897,Form,1,0,intro,NULL,consent,yes
1552156438,5cd8b618456f6bebc8e94f73598a7897,Form,1,0,intro,NULL,sex,female
1552156438,5cd8b618456f6bebc8e94f73598a7897,Form,1,0,intro,NULL,english,fluent
1552156438,5cd8b618456f6bebc8e94f73598a7897,Form,1,0,intro,NULL,education,bachelor
1552156438,5cd8b618456f6bebc8e94f73598a7897,FormBIS,6,0,1question,NULL,ANSWER,All of the objects presented on the grid are red squares
1552156438,5cd8b618456f6bebc8e94f73598a7897,FormBIS,12,0,question7,NULL,ANSWER,Most objects on the grid are blue circles and only a few are blue squares
1552156438,5cd8b618456f6bebc8e94f73598a7897,FormBIS,9,0,question4,NULL,ANSWER,There is almost the same amount of blue and red objects on the list. A third of the objects are circles and the rest are squares.
1552156438,5cd8b618456f6bebc8e94f73598a7897,FormBIS,11,0,question6,NULL,ANSWER,All of the subjects presented on the list are red. Ont third of the subjects are circles and the rest are squares.
1552156438,5cd8b618456f6bebc8e94f73598a7897,FormBIS,14,0,question9,NULL,ANSWER,All of the subjects presented on the list are of blue colour. The odd one out is circle and the rest a squares.
1552156438,5cd8b618456f6bebc8e94f73598a7897,FormBIS,15,0,question10,NULL,ANSWER,Almost three quarters are blue and the rest are red. Similarly with the shapes%2C almost three quarters are squares and the rest are circles.
1552156438,5cd8b618456f6bebc8e94f73598a7897,FormBIS,10,0,question5,NULL,ANSWER,All of the subjects presented on the grid are circles. The odd two out are blue and rest are red.
1552156438,5cd8b618456f6bebc8e94f73598a7897,FormBIS,8,0,question3,NULL,ANSWER,Almost half of the objects presented on the grid are squares and the rest are circles. The two odd ones are red and the rest are blue.
1552156438,5cd8b618456f6bebc8e94f73598a7897,FormBIS,13,0,question8,NULL,ANSWER,One third of objects are red squares. The rest blue shapes with the odd one out being a square.
1552156438,5cd8b618456f6bebc8e94f73598a7897,FormBIS,7,0,question2,NULL,ANSWER,All of the subject presented on the grid are blue. Almost three quarters of the shapes are circles and the rest are squares.
#
# Results on Sunday March 10 2019 17:28:27 UTC.
# USER AGENT: Mozilla/5.0 (Windows NT 10.0; Win64; x64; rv:65.0) Gecko/20100101 Firefox/65.0
# Design number was non-random = 22
#
# Columns below this comment are as follows:
# 1. Time results were received.
# 2. MD5 hash of participant's IP address.
# 3. Controller name.
# 4. Item number.
# 5. Element number.
# 6. Type.
# 7. Group.
# 8. Field name.
# 9. Field value.
1552238907,2436ad7d60559924942a3015ca5a1774,Form,1,0,intro,NULL,age,34
1552238907,2436ad7d60559924942a3015ca5a1774,Form,1,0,intro,NULL,consent,yes
1552238907,2436ad7d60559924942a3015ca5a1774,Form,1,0,intro,NULL,sex,female
1552238907,2436ad7d60559924942a3015ca5a1774,Form,1,0,intro,NULL,english,native
1552238907,2436ad7d60559924942a3015ca5a1774,Form,1,0,intro,NULL,education,bachelor
1552238907,2436ad7d60559924942a3015ca5a1774,FormBIS,6,0,1question,NULL,ANSWER,All objects are red squares
1552238907,2436ad7d60559924942a3015ca5a1774,FormBIS,11,0,question6,NULL,ANSWER,Two thirds of objects are red squares%2C one third red circles
1552238907,2436ad7d60559924942a3015ca5a1774,FormBIS,12,0,question7,NULL,ANSWER,The majority of objects are red circles%2C with two blue squares
1552238907,2436ad7d60559924942a3015ca5a1774,FormBIS,15,0,question10,NULL,ANSWER,Two thirds of the objects are blue circles%2C the remainder: a blue square%2C a red square%2C a red circle
1552238907,2436ad7d60559924942a3015ca5a1774,FormBIS,10,0,question5,NULL,ANSWER,All objects are circles%2C three quarters are red%2C the remainder blue
1552238907,2436ad7d60559924942a3015ca5a1774,FormBIS,7,0,question2,NULL,ANSWER,All objects are blue%2C the majority squares%2C two circles
1552238907,2436ad7d60559924942a3015ca5a1774,FormBIS,8,0,question3,NULL,ANSWER,Just over half the objects are blue circles%2C the remainder are squares equal quantities red and blue
1552238907,2436ad7d60559924942a3015ca5a1774,FormBIS,14,0,question9,NULL,ANSWER,All but one objects are blue squares%2C one circle
1552238907,2436ad7d60559924942a3015ca5a1774,FormBIS,13,0,question8,NULL,ANSWER,Two thirds of the objects are red squares%2C the remainder are blue. Of the blue objects two thirds are circles and one square.
1552238907,2436ad7d60559924942a3015ca5a1774,FormBIS,9,0,question4,NULL,ANSWER,Two thirds of the objects are squares. Of the squares half are blue and half red.%0AThe reamining third of the objects are circles. Of the circles two thirds are red%2C and one blue.
#
# Results on Tuesday March 12 2019 07:26:33 UTC.
# USER AGENT: Mozilla/5.0 (Windows NT 6.1; Win64; x64) AppleWebKit/537.36 (KHTML, like Gecko) Chrome/72.0.3626.109 Safari/537.36
# Design number was non-random = 23
#
# Columns below this comment are as follows:
# 1. Time results were received.
# 2. MD5 hash of participant's IP address.
# 3. Controller name.
# 4. Item number.
# 5. Element number.
# 6. Type.
# 7. Group.
# 8. Field name.
# 9. Field value.
1552375594,76ccbd31c6de6bf56eec3b5d9cf24abc,Form,1,0,intro,NULL,age,35
1552375594,76ccbd31c6de6bf56eec3b5d9cf24abc,Form,1,0,intro,NULL,consent,yes
1552375594,76ccbd31c6de6bf56eec3b5d9cf24abc,Form,1,0,intro,NULL,sex,female
1552375594,76ccbd31c6de6bf56eec3b5d9cf24abc,Form,1,0,intro,NULL,english,native
1552375594,76ccbd31c6de6bf56eec3b5d9cf24abc,Form,1,0,intro,NULL,education,phd
1552375594,76ccbd31c6de6bf56eec3b5d9cf24abc,FormBIS,6,0,1question,NULL,ANSWER,All objects are red squares
1552375594,76ccbd31c6de6bf56eec3b5d9cf24abc,FormBIS,9,0,question4,NULL,ANSWER,Just over half the objects are red and two thirds of the objects are squares
1552375594,76ccbd31c6de6bf56eec3b5d9cf24abc,FormBIS,8,0,question3,NULL,ANSWER,Just over half objects are circles. Most of the objects are blue%2C and half of the squares are red
1552375594,76ccbd31c6de6bf56eec3b5d9cf24abc,FormBIS,13,0,question8,NULL,ANSWER,Two thirds of the objects are red. The majority of the objects are square with a third of the blue objects being round.
1552375594,76ccbd31c6de6bf56eec3b5d9cf24abc,FormBIS,11,0,question6,NULL,ANSWER,All objects are red and two thirds are square
1552375594,76ccbd31c6de6bf56eec3b5d9cf24abc,FormBIS,7,0,question2,NULL,ANSWER,All objects are blue and two thirds are square
1552375594,76ccbd31c6de6bf56eec3b5d9cf24abc,FormBIS,15,0,question10,NULL,ANSWER,Two thirds of the objects are blue and circular. One third of the remaining objects is also blue%2C while the rest of the remaining different shaped objects are red.
1552375594,76ccbd31c6de6bf56eec3b5d9cf24abc,FormBIS,14,0,question9,NULL,ANSWER,All objects are blue and almost all are square.
1552375594,76ccbd31c6de6bf56eec3b5d9cf24abc,FormBIS,10,0,question5,NULL,ANSWER,All objects are circular. All are red except almost one third.
1552375594,76ccbd31c6de6bf56eec3b5d9cf24abc,FormBIS,12,0,question7,NULL,ANSWER,Almost all objects are circular and red except for half the number of sides in a square%2C which are blue and square.
#
# Results on Tuesday March 12 2019 10:40:00 UTC.
# USER AGENT: Mozilla/5.0 (Windows NT 10.0; Win64; x64) AppleWebKit/537.36 (KHTML, like Gecko) Chrome/72.0.3626.121 Safari/537.36
# Design number was non-random = 24
#
# Columns below this comment are as follows:
# 1. Time results were received.
# 2. MD5 hash of participant's IP address.
# 3. Controller name.
# 4. Item number.
# 5. Element number.
# 6. Type.
# 7. Group.
# 8. Field name.
# 9. Field value.
1552387201,917464cc5ae2f039785db50b842a6afb,Form,1,0,intro,NULL,age,44
1552387201,917464cc5ae2f039785db50b842a6afb,Form,1,0,intro,NULL,consent,yes
1552387201,917464cc5ae2f039785db50b842a6afb,Form,1,0,intro,NULL,sex,female
1552387201,917464cc5ae2f039785db50b842a6afb,Form,1,0,intro,NULL,english,native
1552387201,917464cc5ae2f039785db50b842a6afb,Form,1,0,intro,NULL,education,master
1552387201,917464cc5ae2f039785db50b842a6afb,FormBIS,6,0,1question,NULL,ANSWER,Random red boxes
1552387201,917464cc5ae2f039785db50b842a6afb,FormBIS,10,0,question5,NULL,ANSWER,Random red and blue circles
1552387201,917464cc5ae2f039785db50b842a6afb,FormBIS,11,0,question6,NULL,ANSWER,Red boxes and circles
1552387201,917464cc5ae2f039785db50b842a6afb,FormBIS,14,0,question9,NULL,ANSWER,Blue boxes and a blue circle
1552387201,917464cc5ae2f039785db50b842a6afb,FormBIS,12,0,question7,NULL,ANSWER,Red circles and two blue boxes
1552387201,917464cc5ae2f039785db50b842a6afb,FormBIS,9,0,question4,NULL,ANSWER,Random red and blue boxes and circles
1552387201,917464cc5ae2f039785db50b842a6afb,FormBIS,7,0,question2,NULL,ANSWER,Random blue boxes and circles
1552387201,917464cc5ae2f039785db50b842a6afb,FormBIS,15,0,question10,NULL,ANSWER,Random red and blue boxes and circles
1552387201,917464cc5ae2f039785db50b842a6afb,FormBIS,8,0,question3,NULL,ANSWER,Random red and blue boxes and blue circles
1552387201,917464cc5ae2f039785db50b842a6afb,FormBIS,13,0,question8,NULL,ANSWER,Random red boxes%2C one blue box and two blue circles
#
# Results on Wednesday March 13 2019 00:46:07 UTC.
# USER AGENT: Mozilla/5.0 (Windows NT 6.3; Win64; x64; rv:65.0) Gecko/20100101 Firefox/65.0
# Design number was non-random = 25
#
# Columns below this comment are as follows:
# 1. Time results were received.
# 2. MD5 hash of participant's IP address.
# 3. Controller name.
# 4. Item number.
# 5. Element number.
# 6. Type.
# 7. Group.
# 8. Field name.
# 9. Field value.
1552437968,da2fd29669bad1e410756d65193a991d,Form,1,0,intro,NULL,age,25
1552437968,da2fd29669bad1e410756d65193a991d,Form,1,0,intro,NULL,consent,yes
1552437968,da2fd29669bad1e410756d65193a991d,Form,1,0,intro,NULL,sex,female
1552437968,da2fd29669bad1e410756d65193a991d,Form,1,0,intro,NULL,english,fluent
1552437968,da2fd29669bad1e410756d65193a991d,Form,1,0,intro,NULL,education,master
1552437968,da2fd29669bad1e410756d65193a991d,FormBIS,6,0,1question,NULL,ANSWER,All objects are red squares
1552437968,da2fd29669bad1e410756d65193a991d,FormBIS,9,0,question4,NULL,ANSWER,There is three circles with two of them being red and six more squares which are half red and half blue
1552437968,da2fd29669bad1e410756d65193a991d,FormBIS,15,0,question10,NULL,ANSWER,All circles are blue except for one. There is one blue and one red square as well.%0A
1552437968,da2fd29669bad1e410756d65193a991d,FormBIS,14,0,question9,NULL,ANSWER,All objects are blue and all except for one circle are squares.
1552437968,da2fd29669bad1e410756d65193a991d,FormBIS,8,0,question3,NULL,ANSWER,There are three squares with two of them being red. All circles that are portrayed are blue. 
1552437968,da2fd29669bad1e410756d65193a991d,FormBIS,7,0,question2,NULL,ANSWER,All objects - both circles and squares - are blue. 
1552437968,da2fd29669bad1e410756d65193a991d,FormBIS,12,0,question7,NULL,ANSWER,All circles are red. All squares are blue. 
1552437968,da2fd29669bad1e410756d65193a991d,FormBIS,10,0,question5,NULL,ANSWER,There are more red circles than blue circles.
1552437968,da2fd29669bad1e410756d65193a991d,FormBIS,11,0,question6,NULL,ANSWER,All objects - both squares and circles - are red. 
1552437968,da2fd29669bad1e410756d65193a991d,FormBIS,13,0,question8,NULL,ANSWER,All squares except for one blue one are red. Additionally%2C there are two blue circles. 
#
# Results on Wednesday March 13 2019 20:42:03 UTC.
# USER AGENT: Mozilla/5.0 (Windows NT 10.0; Win64; x64) AppleWebKit/537.36 (KHTML, like Gecko) Chrome/72.0.3626.121 Safari/537.36
# Design number was non-random = 26
#
# Columns below this comment are as follows:
# 1. Time results were received.
# 2. MD5 hash of participant's IP address.
# 3. Controller name.
# 4. Item number.
# 5. Element number.
# 6. Type.
# 7. Group.
# 8. Field name.
# 9. Field value.
1552509723,e21fab5b2de542ad758690f55d577f0e,Form,1,0,intro,NULL,age,25
1552509723,e21fab5b2de542ad758690f55d577f0e,Form,1,0,intro,NULL,consent,yes
1552509723,e21fab5b2de542ad758690f55d577f0e,Form,1,0,intro,NULL,sex,female
1552509723,e21fab5b2de542ad758690f55d577f0e,Form,1,0,intro,NULL,english,native
1552509723,e21fab5b2de542ad758690f55d577f0e,Form,1,0,intro,NULL,education,highschool
1552509723,e21fab5b2de542ad758690f55d577f0e,FormBIS,6,0,1question,NULL,ANSWER,All red squares
1552509723,e21fab5b2de542ad758690f55d577f0e,FormBIS,14,0,question9,NULL,ANSWER,All blue squares
1552509723,e21fab5b2de542ad758690f55d577f0e,FormBIS,15,0,question10,NULL,ANSWER,There are blue circles%2C a red square and a blue square
1552509723,e21fab5b2de542ad758690f55d577f0e,FormBIS,8,0,question3,NULL,ANSWER,There are blue circles%2C blue squares and red squares
1552509723,e21fab5b2de542ad758690f55d577f0e,FormBIS,13,0,question8,NULL,ANSWER,There are red squares%2C a blue square and a blue circle
1552509723,e21fab5b2de542ad758690f55d577f0e,FormBIS,9,0,question4,NULL,ANSWER,There are blue squares%2C red squares%2C red circles and a blue circle
1552509723,e21fab5b2de542ad758690f55d577f0e,FormBIS,11,0,question6,NULL,ANSWER,red squares%2C red circles
1552509723,e21fab5b2de542ad758690f55d577f0e,FormBIS,12,0,question7,NULL,ANSWER,red circles%2C blue squares
1552509723,e21fab5b2de542ad758690f55d577f0e,FormBIS,7,0,question2,NULL,ANSWER,blue squares%2C blue circle
1552509723,e21fab5b2de542ad758690f55d577f0e,FormBIS,10,0,question5,NULL,ANSWER,red circles%2C blue circles
#
# Results on Friday March 15 2019 08:58:58 UTC.
# USER AGENT: Mozilla/5.0 (Windows NT 10.0; Win64; x64) AppleWebKit/537.36 (KHTML, like Gecko) Chrome/71.0.3578.98 Safari/537.36 OPR/58.0.3135.79
# Design number was non-random = 27
#
# Columns below this comment are as follows:
# 1. Time results were received.
# 2. MD5 hash of participant's IP address.
# 3. Controller name.
# 4. Item number.
# 5. Element number.
# 6. Type.
# 7. Group.
# 8. Field name.
# 9. Field value.
1552640339,9535177ded6fbab455bb51ab1e3d8595,Form,1,0,intro,NULL,age,24
1552640339,9535177ded6fbab455bb51ab1e3d8595,Form,1,0,intro,NULL,consent,yes
1552640339,9535177ded6fbab455bb51ab1e3d8595,Form,1,0,intro,NULL,sex,female
1552640339,9535177ded6fbab455bb51ab1e3d8595,Form,1,0,intro,NULL,english,fluent
1552640339,9535177ded6fbab455bb51ab1e3d8595,Form,1,0,intro,NULL,education,master
1552640339,9535177ded6fbab455bb51ab1e3d8595,FormBIS,6,0,1question,NULL,ANSWER,All of the objects are red squares.
1552640339,9535177ded6fbab455bb51ab1e3d8595,FormBIS,9,0,question4,NULL,ANSWER,All of the objects are more or less evenly placed on the picture.
1552640339,9535177ded6fbab455bb51ab1e3d8595,FormBIS,12,0,question7,NULL,ANSWER,The amount of red circles prevail over the amount of blue squares.
1552640339,9535177ded6fbab455bb51ab1e3d8595,FormBIS,13,0,question8,NULL,ANSWER,Obects%2C placed on the picture%2C almost accurately form two diagonal lines.
1552640339,9535177ded6fbab455bb51ab1e3d8595,FormBIS,15,0,question10,NULL,ANSWER,Blue objects are facing red objects.
1552640339,9535177ded6fbab455bb51ab1e3d8595,FormBIS,11,0,question6,NULL,ANSWER,There are only red objects on the picture. Mostly squares.
1552640339,9535177ded6fbab455bb51ab1e3d8595,FormBIS,8,0,question3,NULL,ANSWER,A couple of red squares are separeted by blue objects.
1552640339,9535177ded6fbab455bb51ab1e3d8595,FormBIS,14,0,question9,NULL,ANSWER,All of the objects are blue. All of them have four sides except one.
1552640339,9535177ded6fbab455bb51ab1e3d8595,FormBIS,10,0,question5,NULL,ANSWER,There are two pairs of differently coloured circles. Other objects are red.
1552640339,9535177ded6fbab455bb51ab1e3d8595,FormBIS,7,0,question2,NULL,ANSWER,All of the objects are blue. Mostly they are squares.
#
# Results on Friday March 15 2019 10:35:13 UTC.
# USER AGENT: Mozilla/5.0 (X11; Ubuntu; Linux x86_64; rv:64.0) Gecko/20100101 Firefox/64.0
# Design number was non-random = 28
#
# Columns below this comment are as follows:
# 1. Time results were received.
# 2. MD5 hash of participant's IP address.
# 3. Controller name.
# 4. Item number.
# 5. Element number.
# 6. Type.
# 7. Group.
# 8. Field name.
# 9. Field value.
1552646114,dd19fc66ceab9672b8a7061b6782f3c7,Form,1,0,intro,NULL,age,28
1552646114,dd19fc66ceab9672b8a7061b6782f3c7,Form,1,0,intro,NULL,consent,yes
1552646114,dd19fc66ceab9672b8a7061b6782f3c7,Form,1,0,intro,NULL,sex,female
1552646114,dd19fc66ceab9672b8a7061b6782f3c7,Form,1,0,intro,NULL,english,fluent
1552646114,dd19fc66ceab9672b8a7061b6782f3c7,Form,1,0,intro,NULL,education,phd
1552646114,dd19fc66ceab9672b8a7061b6782f3c7,FormBIS,6,0,1question,NULL,ANSWER,All objects are red squares
1552646114,dd19fc66ceab9672b8a7061b6782f3c7,FormBIS,11,0,question6,NULL,ANSWER,There are just red objects: circles and squares
1552646114,dd19fc66ceab9672b8a7061b6782f3c7,FormBIS,10,0,question5,NULL,ANSWER,There are only circles. Red and blue ones.
1552646114,dd19fc66ceab9672b8a7061b6782f3c7,FormBIS,7,0,question2,NULL,ANSWER,There are only blue objects: circles and squares
1552646114,dd19fc66ceab9672b8a7061b6782f3c7,FormBIS,14,0,question9,NULL,ANSWER,There are blue squares and one blue circle
1552646114,dd19fc66ceab9672b8a7061b6782f3c7,FormBIS,9,0,question4,NULL,ANSWER,There are both blue and red objects. Circles and squares.
1552646114,dd19fc66ceab9672b8a7061b6782f3c7,FormBIS,8,0,question3,NULL,ANSWER,There are red and blue squares and some blue circles.
1552646114,dd19fc66ceab9672b8a7061b6782f3c7,FormBIS,12,0,question7,NULL,ANSWER,There are red circles and blue squares
1552646114,dd19fc66ceab9672b8a7061b6782f3c7,FormBIS,15,0,question10,NULL,ANSWER,There are some blue circles and one red circle. There are two squares: one red and one blue.
1552646114,dd19fc66ceab9672b8a7061b6782f3c7,FormBIS,13,0,question8,NULL,ANSWER,There are red and blue squares and some blue circles.
#
# Results on Friday March 15 2019 20:21:11 UTC.
# USER AGENT: Mozilla/5.0 (Windows NT 10.0; Win64; x64) AppleWebKit/537.36 (KHTML, like Gecko) Chrome/72.0.3626.121 Safari/537.36
# Design number was non-random = 29
#
# Columns below this comment are as follows:
# 1. Time results were received.
# 2. MD5 hash of participant's IP address.
# 3. Controller name.
# 4. Item number.
# 5. Element number.
# 6. Type.
# 7. Group.
# 8. Field name.
# 9. Field value.
1552681272,5fc33c6a89a31a15d47e2a9b6852ad71,Form,1,0,intro,NULL,age,26
1552681272,5fc33c6a89a31a15d47e2a9b6852ad71,Form,1,0,intro,NULL,consent,yes
1552681272,5fc33c6a89a31a15d47e2a9b6852ad71,Form,1,0,intro,NULL,sex,other
1552681272,5fc33c6a89a31a15d47e2a9b6852ad71,Form,1,0,intro,NULL,english,fluent
1552681272,5fc33c6a89a31a15d47e2a9b6852ad71,Form,1,0,intro,NULL,education,master
1552681272,5fc33c6a89a31a15d47e2a9b6852ad71,FormBIS,6,0,1question,NULL,ANSWER,All squares are red
1552681272,5fc33c6a89a31a15d47e2a9b6852ad71,FormBIS,13,0,question8,NULL,ANSWER,Most items are red
1552681272,5fc33c6a89a31a15d47e2a9b6852ad71,FormBIS,14,0,question9,NULL,ANSWER,Everything is blue
1552681272,5fc33c6a89a31a15d47e2a9b6852ad71,FormBIS,7,0,question2,NULL,ANSWER,Everything is blue
1552681272,5fc33c6a89a31a15d47e2a9b6852ad71,FormBIS,11,0,question6,NULL,ANSWER,Every object is red
1552681272,5fc33c6a89a31a15d47e2a9b6852ad71,FormBIS,8,0,question3,NULL,ANSWER,Most objects are blue
1552681272,5fc33c6a89a31a15d47e2a9b6852ad71,FormBIS,9,0,question4,NULL,ANSWER,There is equal blue and red objects
1552681272,5fc33c6a89a31a15d47e2a9b6852ad71,FormBIS,15,0,question10,NULL,ANSWER,Most objects are blue
1552681272,5fc33c6a89a31a15d47e2a9b6852ad71,FormBIS,12,0,question7,NULL,ANSWER,All circles are red and all squares are blue
1552681272,5fc33c6a89a31a15d47e2a9b6852ad71,FormBIS,10,0,question5,NULL,ANSWER,Most circles are red
#
# Results on Friday March 15 2019 21:08:51 UTC.
# USER AGENT: Mozilla/5.0 (Macintosh; Intel Mac OS X 10_14_3) AppleWebKit/537.36 (KHTML, like Gecko) Chrome/72.0.3626.109 Safari/537.36
# Design number was non-random = 30
#
# Columns below this comment are as follows:
# 1. Time results were received.
# 2. MD5 hash of participant's IP address.
# 3. Controller name.
# 4. Item number.
# 5. Element number.
# 6. Type.
# 7. Group.
# 8. Field name.
# 9. Field value.
1552684132,1668304f8bb995591ef5a1dcc340cb3f,Form,1,0,intro,NULL,age,32
1552684132,1668304f8bb995591ef5a1dcc340cb3f,Form,1,0,intro,NULL,consent,yes
1552684132,1668304f8bb995591ef5a1dcc340cb3f,Form,1,0,intro,NULL,sex,female
1552684132,1668304f8bb995591ef5a1dcc340cb3f,Form,1,0,intro,NULL,english,native
1552684132,1668304f8bb995591ef5a1dcc340cb3f,Form,1,0,intro,NULL,education,master
1552684132,1668304f8bb995591ef5a1dcc340cb3f,FormBIS,6,0,1question,NULL,ANSWER,They are all red squares
1552684132,1668304f8bb995591ef5a1dcc340cb3f,FormBIS,11,0,question6,NULL,ANSWER,There are red squares and red circles%2C more than half of the objects are squares
1552684132,1668304f8bb995591ef5a1dcc340cb3f,FormBIS,14,0,question9,NULL,ANSWER,There are blue squares and a blue circle
1552684132,1668304f8bb995591ef5a1dcc340cb3f,FormBIS,9,0,question4,NULL,ANSWER,There are red squares%2C red circles%2C blue squares and blue circles; slightly more of the shapes are red than blue and there are twice as many squares as circles.
1552684132,1668304f8bb995591ef5a1dcc340cb3f,FormBIS,8,0,question3,NULL,ANSWER,There are lots of blue circles%2C a couple of blue squares and a couple of red squares
1552684132,1668304f8bb995591ef5a1dcc340cb3f,FormBIS,7,0,question2,NULL,ANSWER,All the shapes are blue%2C  there are only a coouple of circles and the others are squares
1552684132,1668304f8bb995591ef5a1dcc340cb3f,FormBIS,12,0,question7,NULL,ANSWER,there are lots of red circles and a couple of blue squares
1552684132,1668304f8bb995591ef5a1dcc340cb3f,FormBIS,15,0,question10,NULL,ANSWER,The majority of the shapes are blue and the majority are circles%2C but there are two kinds of red shape and two kinds of blue shape
1552684132,1668304f8bb995591ef5a1dcc340cb3f,FormBIS,10,0,question5,NULL,ANSWER,All of the shapes are circles%2C and most are red%2C there are only a couple of blue shapes
1552684132,1668304f8bb995591ef5a1dcc340cb3f,FormBIS,13,0,question8,NULL,ANSWER,There are twice as many red shapes as there are blue shapes%2C all the red shapes are square and there are a pair of blue circles
#
# Results on Saturday March 16 2019 18:50:30 UTC.
# USER AGENT: Mozilla/5.0 (Macintosh; Intel Mac OS X 10_14_2) AppleWebKit/537.36 (KHTML, like Gecko) Chrome/72.0.3626.121 Safari/537.36
# Design number was non-random = 31
#
# Columns below this comment are as follows:
# 1. Time results were received.
# 2. MD5 hash of participant's IP address.
# 3. Controller name.
# 4. Item number.
# 5. Element number.
# 6. Type.
# 7. Group.
# 8. Field name.
# 9. Field value.
1552762230,73566654ddcdd30e3f6256091f4b1e4a,Form,1,0,intro,NULL,age,25
1552762230,73566654ddcdd30e3f6256091f4b1e4a,Form,1,0,intro,NULL,consent,yes
1552762230,73566654ddcdd30e3f6256091f4b1e4a,Form,1,0,intro,NULL,sex,male
1552762230,73566654ddcdd30e3f6256091f4b1e4a,Form,1,0,intro,NULL,english,fluent
1552762230,73566654ddcdd30e3f6256091f4b1e4a,Form,1,0,intro,NULL,education,master
1552762230,73566654ddcdd30e3f6256091f4b1e4a,FormBIS,6,0,1question,NULL,ANSWER,scatterred red squares
1552762230,73566654ddcdd30e3f6256091f4b1e4a,FormBIS,12,0,question7,NULL,ANSWER,a mix of red dots and blue squares
1552762230,73566654ddcdd30e3f6256091f4b1e4a,FormBIS,13,0,question8,NULL,ANSWER,mix of red%2C blue squares and blue dots
1552762230,73566654ddcdd30e3f6256091f4b1e4a,FormBIS,14,0,question9,NULL,ANSWER,blue squares and a blue dot
1552762230,73566654ddcdd30e3f6256091f4b1e4a,FormBIS,7,0,question2,NULL,ANSWER,blue squares and 2 blue dots
1552762230,73566654ddcdd30e3f6256091f4b1e4a,FormBIS,11,0,question6,NULL,ANSWER,red squares and red dots
1552762230,73566654ddcdd30e3f6256091f4b1e4a,FormBIS,9,0,question4,NULL,ANSWER,a mix of red and vlue squares and circles
1552762230,73566654ddcdd30e3f6256091f4b1e4a,FormBIS,10,0,question5,NULL,ANSWER,red and blue circles
1552762230,73566654ddcdd30e3f6256091f4b1e4a,FormBIS,15,0,question10,NULL,ANSWER,red and blue squares and circles
1552762230,73566654ddcdd30e3f6256091f4b1e4a,FormBIS,8,0,question3,NULL,ANSWER,red and blue suqares and blue circles
#
# Results on Sunday March 17 2019 10:24:43 UTC.
# USER AGENT: Mozilla/5.0 (iPhone; CPU iPhone OS 12_1_4 like Mac OS X) AppleWebKit/605.1.15 (KHTML, like Gecko) Version/12.0 Mobile/15E148 Safari/604.1
# Design number was non-random = 32
#
# Columns below this comment are as follows:
# 1. Time results were received.
# 2. MD5 hash of participant's IP address.
# 3. Controller name.
# 4. Item number.
# 5. Element number.
# 6. Type.
# 7. Group.
# 8. Field name.
# 9. Field value.
1552818283,50d43b09279bd676ef3769f8aad8cfad,Form,1,0,intro,NULL,age,25
1552818283,50d43b09279bd676ef3769f8aad8cfad,Form,1,0,intro,NULL,consent,yes
1552818283,50d43b09279bd676ef3769f8aad8cfad,Form,1,0,intro,NULL,sex,male
1552818283,50d43b09279bd676ef3769f8aad8cfad,Form,1,0,intro,NULL,english,native
1552818283,50d43b09279bd676ef3769f8aad8cfad,Form,1,0,intro,NULL,education,bachelor
1552818283,50d43b09279bd676ef3769f8aad8cfad,FormBIS,6,0,1question,NULL,ANSWER,No idea
1552818283,50d43b09279bd676ef3769f8aad8cfad,FormBIS,11,0,question6,NULL,ANSWER,No idea
1552818283,50d43b09279bd676ef3769f8aad8cfad,FormBIS,7,0,question2,NULL,ANSWER,No idea
1552818283,50d43b09279bd676ef3769f8aad8cfad,FormBIS,15,0,question10,NULL,ANSWER,No idea
1552818283,50d43b09279bd676ef3769f8aad8cfad,FormBIS,14,0,question9,NULL,ANSWER,No idea
1552818283,50d43b09279bd676ef3769f8aad8cfad,FormBIS,13,0,question8,NULL,ANSWER,No idea
1552818283,50d43b09279bd676ef3769f8aad8cfad,FormBIS,10,0,question5,NULL,ANSWER,No idea
1552818283,50d43b09279bd676ef3769f8aad8cfad,FormBIS,12,0,question7,NULL,ANSWER,No idea
1552818283,50d43b09279bd676ef3769f8aad8cfad,FormBIS,8,0,question3,NULL,ANSWER,No idea
1552818283,50d43b09279bd676ef3769f8aad8cfad,FormBIS,9,0,question4,NULL,ANSWER,No idea
#
# Results on Monday March 18 2019 07:37:41 UTC.
# USER AGENT: Mozilla/5.0 (Macintosh; Intel Mac OS X 10_14_1) AppleWebKit/605.1.15 (KHTML, like Gecko) Version/12.0.1 Safari/605.1.15
# Design number was non-random = 33
#
# Columns below this comment are as follows:
# 1. Time results were received.
# 2. MD5 hash of participant's IP address.
# 3. Controller name.
# 4. Item number.
# 5. Element number.
# 6. Type.
# 7. Group.
# 8. Field name.
# 9. Field value.
1552894662,39fe6435360aec6b3ce4744d1263d852,Form,1,0,intro,NULL,age,45
1552894662,39fe6435360aec6b3ce4744d1263d852,Form,1,0,intro,NULL,consent,yes
1552894662,39fe6435360aec6b3ce4744d1263d852,Form,1,0,intro,NULL,sex,female
1552894662,39fe6435360aec6b3ce4744d1263d852,Form,1,0,intro,NULL,english,fluent
1552894662,39fe6435360aec6b3ce4744d1263d852,Form,1,0,intro,NULL,education,master
1552894662,39fe6435360aec6b3ce4744d1263d852,FormBIS,6,0,1question,NULL,ANSWER,All the items are red squares.
1552894662,39fe6435360aec6b3ce4744d1263d852,FormBIS,9,0,question4,NULL,ANSWER,There are all sorts of shapes and colours. Could be said that the items are separated into two groups.
1552894662,39fe6435360aec6b3ce4744d1263d852,FormBIS,7,0,question2,NULL,ANSWER,All the items are blue. There are mixed circles and squares.
1552894662,39fe6435360aec6b3ce4744d1263d852,FormBIS,12,0,question7,NULL,ANSWER,Most of the items are red circles. There are blue squares%2C too.
1552894662,39fe6435360aec6b3ce4744d1263d852,FormBIS,11,0,question6,NULL,ANSWER,All of the items are red. Most of them are squares%2C a few are circles.
1552894662,39fe6435360aec6b3ce4744d1263d852,FormBIS,15,0,question10,NULL,ANSWER,Most of the items are blue. A couple of them are red. The shapes are diverse for both colours.
1552894662,39fe6435360aec6b3ce4744d1263d852,FormBIS,8,0,question3,NULL,ANSWER,Most of the items are blue circles. There are a couple blue and red squares%2C too.
1552894662,39fe6435360aec6b3ce4744d1263d852,FormBIS,14,0,question9,NULL,ANSWER,Almost all of the items are blue squares. The only exception is a blue circle.
1552894662,39fe6435360aec6b3ce4744d1263d852,FormBIS,10,0,question5,NULL,ANSWER,All of the items are circles%2C almost all of them red. A couple are the colour blue%2C though.
1552894662,39fe6435360aec6b3ce4744d1263d852,FormBIS,13,0,question8,NULL,ANSWER,The items are mixed with a slight predominance of the red squares. There are blue circles and a blue square%2C too.
#
# Results on Wednesday March 06 2019 15:45:32 UTC.
# USER AGENT: Mozilla/5.0 (Macintosh; Intel Mac OS X 10_14_4) AppleWebKit/537.36 (KHTML, like Gecko) Chrome/72.0.3626.119 Safari/537.36
# Design number was non-random = 0
#
# Columns below this comment are as follows:
# 1. Time results were received.
# 2. MD5 hash of participant's IP address.
# 3. Controller name.
# 4. Item number.
# 5. Element number.
# 6. Type.
# 7. Group.
# 8. Field name.
# 9. Field value.
1551887132,ebccaf32e2a23f6607297a2ae4daa335,Form,1,0,intro,NULL,age,24
1551887132,ebccaf32e2a23f6607297a2ae4daa335,Form,1,0,intro,NULL,consent,yes
1551887132,ebccaf32e2a23f6607297a2ae4daa335,Form,1,0,intro,NULL,sex,male
1551887132,ebccaf32e2a23f6607297a2ae4daa335,Form,1,0,intro,NULL,english,fluent
1551887132,ebccaf32e2a23f6607297a2ae4daa335,Form,1,0,intro,NULL,education,highschool
1551887132,ebccaf32e2a23f6607297a2ae4daa335,FormBIS,6,0,1question,NULL,ANSWER,Serval red squares spread fairly equally across the square
1551887132,ebccaf32e2a23f6607297a2ae4daa335,FormBIS,8,0,question3,NULL,ANSWER,A mix of red and blue. The red ones can only be squares it appears.
1551887132,ebccaf32e2a23f6607297a2ae4daa335,FormBIS,14,0,question9,NULL,ANSWER,The square is currently filled with blue shapes only. It seems the squares are more popular this time around. 
1551887132,ebccaf32e2a23f6607297a2ae4daa335,FormBIS,10,0,question5,NULL,ANSWER,Exclusively filled with circles. The colour is mostly red%2C two circles are blue.
1551887132,ebccaf32e2a23f6607297a2ae4daa335,FormBIS,9,0,question4,NULL,ANSWER,Mixed bag of red and blue. The shapes seem to be balanced this time. 
1551887132,ebccaf32e2a23f6607297a2ae4daa335,FormBIS,12,0,question7,NULL,ANSWER,Mostly red circles in this square. There are two blue squares also present.
1551887132,ebccaf32e2a23f6607297a2ae4daa335,FormBIS,7,0,question2,NULL,ANSWER,Only blue shapes in this picture. The squares seem to be the majority. There are still a number of circles present.
1551887132,ebccaf32e2a23f6607297a2ae4daa335,FormBIS,15,0,question10,NULL,ANSWER,Only one square of each colour can be found on this screen. only one other red shape can be seen. A circle. The other figures are all blue circles.
1551887132,ebccaf32e2a23f6607297a2ae4daa335,FormBIS,11,0,question6,NULL,ANSWER,The objects are separated by form this time. The left side of the square houses the squares%2C the right holds the circles. 
1551887132,ebccaf32e2a23f6607297a2ae4daa335,FormBIS,13,0,question8,NULL,ANSWER,Only red squares can be seen. Blue has only one square and two circles. 
#
# Results on Wednesday March 06 2019 18:10:06 UTC.
# USER AGENT: Mozilla/5.0 (Macintosh; Intel Mac OS X 10_13_5) AppleWebKit/537.36 (KHTML, like Gecko) Chrome/71.0.3578.98 Safari/537.36
# Design number was non-random = 1
#
# Columns below this comment are as follows:
# 1. Time results were received.
# 2. MD5 hash of participant's IP address.
# 3. Controller name.
# 4. Item number.
# 5. Element number.
# 6. Type.
# 7. Group.
# 8. Field name.
# 9. Field value.
1551895807,d4d20754bfa8459321c4922773d3050f,Form,1,0,intro,NULL,age,18
1551895807,d4d20754bfa8459321c4922773d3050f,Form,1,0,intro,NULL,consent,yes
1551895807,d4d20754bfa8459321c4922773d3050f,Form,1,0,intro,NULL,sex,male
1551895807,d4d20754bfa8459321c4922773d3050f,Form,1,0,intro,NULL,english,native
1551895807,d4d20754bfa8459321c4922773d3050f,Form,1,0,intro,NULL,education,highschool
1551895807,d4d20754bfa8459321c4922773d3050f,FormBIS,6,0,1question,NULL,ANSWER,All of the objects are red squares. They are forming almost an x shape. 
1551895807,d4d20754bfa8459321c4922773d3050f,FormBIS,7,0,question2,NULL,ANSWER,They are all blue%2C and the circles are very close to most of the blue squares.
1551895807,d4d20754bfa8459321c4922773d3050f,FormBIS,8,0,question3,NULL,ANSWER,There are more circles than squares and some of the squares are red. 
1551895807,d4d20754bfa8459321c4922773d3050f,FormBIS,13,0,question8,NULL,ANSWER,There are mostly red squares with some blue circles and a square. 
1551895807,d4d20754bfa8459321c4922773d3050f,FormBIS,11,0,question6,NULL,ANSWER,They are all red with more squares than circles. The squares almost form a straight line. 
1551895807,d4d20754bfa8459321c4922773d3050f,FormBIS,9,0,question4,NULL,ANSWER,There is blue on the left and red on the right%2C with a mix of circles and squares for both of them. 
1551895807,d4d20754bfa8459321c4922773d3050f,FormBIS,10,0,question5,NULL,ANSWER,It is all circles with the red circles taking up the majority of the space%2C and the blue circles are on the far right. 
1551895807,d4d20754bfa8459321c4922773d3050f,FormBIS,15,0,question10,NULL,ANSWER,It has mostly blue circles in the center and right%2C with red on the bottom and a blue square to the left. 
1551895807,d4d20754bfa8459321c4922773d3050f,FormBIS,12,0,question7,NULL,ANSWER,All the circles are red%2C and all the squares are blue. The squares are to the right. 
1551895807,d4d20754bfa8459321c4922773d3050f,FormBIS,14,0,question9,NULL,ANSWER,They are all blue%2C with the squares taking up the majority of the space%2C and the circle to the far right. 
#
# Results on Wednesday March 06 2019 18:45:36 UTC.
# USER AGENT: Mozilla/5.0 (Macintosh; Intel Mac OS X 10_14_3) AppleWebKit/605.1.15 (KHTML, like Gecko) Version/12.0.3 Safari/605.1.15
# Design number was non-random = 2
#
# Columns below this comment are as follows:
# 1. Time results were received.
# 2. MD5 hash of participant's IP address.
# 3. Controller name.
# 4. Item number.
# 5. Element number.
# 6. Type.
# 7. Group.
# 8. Field name.
# 9. Field value.
1551897936,eee8bbb60878a086368b208b04e6e88d,Form,1,0,intro,NULL,age,34
1551897936,eee8bbb60878a086368b208b04e6e88d,Form,1,0,intro,NULL,consent,yes
1551897936,eee8bbb60878a086368b208b04e6e88d,Form,1,0,intro,NULL,sex,female
1551897936,eee8bbb60878a086368b208b04e6e88d,Form,1,0,intro,NULL,english,fluent
1551897936,eee8bbb60878a086368b208b04e6e88d,Form,1,0,intro,NULL,education,bachelor
1551897936,eee8bbb60878a086368b208b04e6e88d,FormBIS,6,0,1question,NULL,ANSWER,All the squares are red and the background is white
1551897936,eee8bbb60878a086368b208b04e6e88d,FormBIS,8,0,question3,NULL,ANSWER,There are blue and red objects. the blue objects are higher in numbers than the red and are a mix of squares and circles%2C while the red objects are only two and are only squares. The background is white.
1551897936,eee8bbb60878a086368b208b04e6e88d,FormBIS,12,0,question7,NULL,ANSWER,Only two blue squares are in the picture%2C while there is a higher number of red circles. The background is white 
1551897936,eee8bbb60878a086368b208b04e6e88d,FormBIS,11,0,question6,NULL,ANSWER,All the items in the pictures are red. The circles are half the number of the squares. The background is white
1551897936,eee8bbb60878a086368b208b04e6e88d,FormBIS,13,0,question8,NULL,ANSWER,The red figure%2C outnumber the blues. While the reds are only squares%2C the blues are a variety of shapes. 
1551897936,eee8bbb60878a086368b208b04e6e88d,FormBIS,7,0,question2,NULL,ANSWER,All the shapes are blue in colour and only two are circles.
1551897936,eee8bbb60878a086368b208b04e6e88d,FormBIS,10,0,question5,NULL,ANSWER,All the items in the pictures are squares and the majority of them is red
1551897936,eee8bbb60878a086368b208b04e6e88d,FormBIS,9,0,question4,NULL,ANSWER,the predominant shape is squares and the predominant colour is red
1551897936,eee8bbb60878a086368b208b04e6e88d,FormBIS,14,0,question9,NULL,ANSWER,The objects are all blue%2C the majority is square shaped%2C with only one blue circle and it seems like a tennis racket and a ball.
1551897936,eee8bbb60878a086368b208b04e6e88d,FormBIS,15,0,question10,NULL,ANSWER,two objects  are red%2C both circle and square. the others are blue%2C only one is a square
#
# Results on Wednesday March 06 2019 19:45:05 UTC.
# USER AGENT: Mozilla/5.0 (Windows NT 10.0; Win64; x64; rv:65.0) Gecko/20100101 Firefox/65.0
# Design number was non-random = 3
#
# Columns below this comment are as follows:
# 1. Time results were received.
# 2. MD5 hash of participant's IP address.
# 3. Controller name.
# 4. Item number.
# 5. Element number.
# 6. Type.
# 7. Group.
# 8. Field name.
# 9. Field value.
1551901505,d5bc6cd9b08edc8111ef8cffa40c1802,Form,1,0,intro,NULL,age,44
1551901505,d5bc6cd9b08edc8111ef8cffa40c1802,Form,1,0,intro,NULL,consent,yes
1551901505,d5bc6cd9b08edc8111ef8cffa40c1802,Form,1,0,intro,NULL,sex,female
1551901505,d5bc6cd9b08edc8111ef8cffa40c1802,Form,1,0,intro,NULL,english,fluent
1551901505,d5bc6cd9b08edc8111ef8cffa40c1802,Form,1,0,intro,NULL,education,master
1551901505,d5bc6cd9b08edc8111ef8cffa40c1802,FormBIS,6,0,1question,NULL,ANSWER,all objects are red squares
1551901505,d5bc6cd9b08edc8111ef8cffa40c1802,FormBIS,10,0,question5,NULL,ANSWER,most objects are red circles%2C some are blue
1551901505,d5bc6cd9b08edc8111ef8cffa40c1802,FormBIS,9,0,question4,NULL,ANSWER,some objects are red circles or squares and some objects are blue circles or squares
1551901505,d5bc6cd9b08edc8111ef8cffa40c1802,FormBIS,14,0,question9,NULL,ANSWER,almost all objects are blue squares safe one blue circle
1551901505,d5bc6cd9b08edc8111ef8cffa40c1802,FormBIS,7,0,question2,NULL,ANSWER,almost all objects are blue squares except a couple of blue circles
1551901505,d5bc6cd9b08edc8111ef8cffa40c1802,FormBIS,13,0,question8,NULL,ANSWER,all red objects are squares%2C the less frequent blue objects are a couple of circles and a square
1551901505,d5bc6cd9b08edc8111ef8cffa40c1802,FormBIS,11,0,question6,NULL,ANSWER,most objects are red squares%2C some are red red circles
1551901505,d5bc6cd9b08edc8111ef8cffa40c1802,FormBIS,8,0,question3,NULL,ANSWER,most objects are blue%2C there are circles and squares%2C except for a couple of red squares
1551901505,d5bc6cd9b08edc8111ef8cffa40c1802,FormBIS,12,0,question7,NULL,ANSWER,almost all objects are red circles%2C others are blue squares
1551901505,d5bc6cd9b08edc8111ef8cffa40c1802,FormBIS,15,0,question10,NULL,ANSWER,almost all objects are blue%2C most of them are blue%2C a couple are red and of both shapes
#
# Results on Thursday March 07 2019 11:10:08 UTC.
# USER AGENT: Mozilla/5.0 (Windows NT 10.0; Win64; x64) AppleWebKit/537.36 (KHTML, like Gecko) Chrome/72.0.3626.109 Safari/537.36
# Design number was non-random = 4
#
# Columns below this comment are as follows:
# 1. Time results were received.
# 2. MD5 hash of participant's IP address.
# 3. Controller name.
# 4. Item number.
# 5. Element number.
# 6. Type.
# 7. Group.
# 8. Field name.
# 9. Field value.
1551957008,d5f18778bfc9206d5da5d2e8427485e9,Form,1,0,intro,NULL,age,38
1551957008,d5f18778bfc9206d5da5d2e8427485e9,Form,1,0,intro,NULL,consent,yes
1551957008,d5f18778bfc9206d5da5d2e8427485e9,Form,1,0,intro,NULL,sex,female
1551957008,d5f18778bfc9206d5da5d2e8427485e9,Form,1,0,intro,NULL,english,fluent
1551957008,d5f18778bfc9206d5da5d2e8427485e9,Form,1,0,intro,NULL,education,bachelor
1551957008,d5f18778bfc9206d5da5d2e8427485e9,FormBIS,6,0,1question,NULL,ANSWER,All the squares are red
1551957008,d5f18778bfc9206d5da5d2e8427485e9,FormBIS,11,0,question6,NULL,ANSWER,There are some red squares and circles
1551957008,d5f18778bfc9206d5da5d2e8427485e9,FormBIS,14,0,question9,NULL,ANSWER,There is one blue circle among all the blue squares
1551957008,d5f18778bfc9206d5da5d2e8427485e9,FormBIS,9,0,question4,NULL,ANSWER,Half the objects are blue and half are red. Most of them are squares but there are also circles
1551957008,d5f18778bfc9206d5da5d2e8427485e9,FormBIS,13,0,question8,NULL,ANSWER,There are all red squares%2C except for two blue circles and a blue square
1551957008,d5f18778bfc9206d5da5d2e8427485e9,FormBIS,8,0,question3,NULL,ANSWER,All the obkects are blue%2C except for two red squares. There are two blue squares%2C the rest are circles
1551957008,d5f18778bfc9206d5da5d2e8427485e9,FormBIS,15,0,question10,NULL,ANSWER,All the objects are blue circles%2C except for one red circle%2C one red square and one blue square
1551957008,d5f18778bfc9206d5da5d2e8427485e9,FormBIS,12,0,question7,NULL,ANSWER,All red circles%2C except for two blue squares
1551957008,d5f18778bfc9206d5da5d2e8427485e9,FormBIS,10,0,question5,NULL,ANSWER,All objects are circles%2C two of them are blue and the rest are red
1551957008,d5f18778bfc9206d5da5d2e8427485e9,FormBIS,7,0,question2,NULL,ANSWER,All objects are blue%2C two of them are circles and the rest are squares
#
# Results on Thursday March 07 2019 12:26:49 UTC.
# USER AGENT: Mozilla/5.0 (Macintosh; Intel Mac OS X 10.13; rv:65.0) Gecko/20100101 Firefox/65.0
# Design number was non-random = 5
#
# Columns below this comment are as follows:
# 1. Time results were received.
# 2. MD5 hash of participant's IP address.
# 3. Controller name.
# 4. Item number.
# 5. Element number.
# 6. Type.
# 7. Group.
# 8. Field name.
# 9. Field value.
1551961609,0f020df794888dda04af9a5d6307f368,Form,1,0,intro,NULL,age,46
1551961609,0f020df794888dda04af9a5d6307f368,Form,1,0,intro,NULL,consent,yes
1551961609,0f020df794888dda04af9a5d6307f368,Form,1,0,intro,NULL,sex,female
1551961609,0f020df794888dda04af9a5d6307f368,Form,1,0,intro,NULL,english,native
1551961609,0f020df794888dda04af9a5d6307f368,Form,1,0,intro,NULL,education,phd
1551961609,0f020df794888dda04af9a5d6307f368,FormBIS,6,0,1question,NULL,ANSWER,red spots
1551961609,0f020df794888dda04af9a5d6307f368,FormBIS,7,0,question2,NULL,ANSWER,blue cricles and squares
1551961609,0f020df794888dda04af9a5d6307f368,FormBIS,11,0,question6,NULL,ANSWER,red circles and squares
1551961609,0f020df794888dda04af9a5d6307f368,FormBIS,15,0,question10,NULL,ANSWER,Mix shapes
1551961609,0f020df794888dda04af9a5d6307f368,FormBIS,14,0,question9,NULL,ANSWER,mix blue shapes
1551961609,0f020df794888dda04af9a5d6307f368,FormBIS,9,0,question4,NULL,ANSWER,mix shapes and colour
1551961609,0f020df794888dda04af9a5d6307f368,FormBIS,10,0,question5,NULL,ANSWER,mix colour circles
1551961609,0f020df794888dda04af9a5d6307f368,FormBIS,13,0,question8,NULL,ANSWER,mix colour and shapes
1551961609,0f020df794888dda04af9a5d6307f368,FormBIS,8,0,question3,NULL,ANSWER,mix colour and shapes
1551961609,0f020df794888dda04af9a5d6307f368,FormBIS,12,0,question7,NULL,ANSWER,mix colour and shapes
#
# Results on Thursday March 07 2019 13:57:55 UTC.
# USER AGENT: Mozilla/5.0 (Windows NT 10.0; Win64; x64) AppleWebKit/537.36 (KHTML, like Gecko) Chrome/58.0.3029.110 Safari/537.36 Edge/16.16299
# Design number was non-random = 6
#
# Columns below this comment are as follows:
# 1. Time results were received.
# 2. MD5 hash of participant's IP address.
# 3. Controller name.
# 4. Item number.
# 5. Element number.
# 6. Type.
# 7. Group.
# 8. Field name.
# 9. Field value.
1551967076,16d0cd7ae5bcd57081a7f7056af7b2b0,Form,1,0,intro,NULL,age,30
1551967076,16d0cd7ae5bcd57081a7f7056af7b2b0,Form,1,0,intro,NULL,consent,yes
1551967076,16d0cd7ae5bcd57081a7f7056af7b2b0,Form,1,0,intro,NULL,sex,female
1551967076,16d0cd7ae5bcd57081a7f7056af7b2b0,Form,1,0,intro,NULL,english,fluent
1551967076,16d0cd7ae5bcd57081a7f7056af7b2b0,Form,1,0,intro,NULL,education,phd
1551967076,16d0cd7ae5bcd57081a7f7056af7b2b0,FormBIS,6,0,1question,NULL,ANSWER,red squares
1551967076,16d0cd7ae5bcd57081a7f7056af7b2b0,FormBIS,10,0,question5,NULL,ANSWER,red and blue
1551967076,16d0cd7ae5bcd57081a7f7056af7b2b0,FormBIS,8,0,question3,NULL,ANSWER,again
1551967076,16d0cd7ae5bcd57081a7f7056af7b2b0,FormBIS,9,0,question4,NULL,ANSWER,again
1551967076,16d0cd7ae5bcd57081a7f7056af7b2b0,FormBIS,15,0,question10,NULL,ANSWER,very difficult to solve this survey
1551967076,16d0cd7ae5bcd57081a7f7056af7b2b0,FormBIS,12,0,question7,NULL,ANSWER,again
1551967076,16d0cd7ae5bcd57081a7f7056af7b2b0,FormBIS,14,0,question9,NULL,ANSWER,again
1551967076,16d0cd7ae5bcd57081a7f7056af7b2b0,FormBIS,13,0,question8,NULL,ANSWER,same
1551967076,16d0cd7ae5bcd57081a7f7056af7b2b0,FormBIS,7,0,question2,NULL,ANSWER,blue
1551967076,16d0cd7ae5bcd57081a7f7056af7b2b0,FormBIS,11,0,question6,NULL,ANSWER,red
#
# Results on Thursday March 21 2019 20:10:21 UTC.
# USER AGENT: Mozilla/5.0 (Windows NT 10.0; Win64; x64) AppleWebKit/537.36 (KHTML, like Gecko) Chrome/64.0.3282.140 Safari/537.36 Edge/18.17763
# Design number was non-random = 34
#
# Columns below this comment are as follows:
# 1. Time results were received.
# 2. MD5 hash of participant's IP address.
# 3. Controller name.
# 4. Item number.
# 5. Element number.
# 6. Type.
# 7. Group.
# 8. Field name.
# 9. Field value.
1553199021,5e2b0493b9e46ebe6bfe747f5fdd3708,Form,1,0,intro,NULL,age,22
1553199021,5e2b0493b9e46ebe6bfe747f5fdd3708,Form,1,0,intro,NULL,consent,yes
1553199021,5e2b0493b9e46ebe6bfe747f5fdd3708,Form,1,0,intro,NULL,sex,male
1553199021,5e2b0493b9e46ebe6bfe747f5fdd3708,Form,1,0,intro,NULL,english,native
1553199021,5e2b0493b9e46ebe6bfe747f5fdd3708,Form,1,0,intro,NULL,education,bachelor
1553199021,5e2b0493b9e46ebe6bfe747f5fdd3708,FormBIS,6,0,1question,NULL,ANSWER,These are all red squares.
1553199021,5e2b0493b9e46ebe6bfe747f5fdd3708,FormBIS,15,0,question10,NULL,ANSWER,There are many blue circles with one square in each color and a single red circle.
1553199021,5e2b0493b9e46ebe6bfe747f5fdd3708,FormBIS,10,0,question5,NULL,ANSWER,All circles with only 2 not red.
1553199021,5e2b0493b9e46ebe6bfe747f5fdd3708,FormBIS,8,0,question3,NULL,ANSWER,There are two squares in each color%2C with several blue circles.
1553199021,5e2b0493b9e46ebe6bfe747f5fdd3708,FormBIS,14,0,question9,NULL,ANSWER,All blue squares plus a circle of the same color.
1553199021,5e2b0493b9e46ebe6bfe747f5fdd3708,FormBIS,12,0,question7,NULL,ANSWER,Red circles with the addition of two blue squares.
1553199021,5e2b0493b9e46ebe6bfe747f5fdd3708,FormBIS,7,0,question2,NULL,ANSWER,There are many blue squares with the addition of two blue circles.
1553199021,5e2b0493b9e46ebe6bfe747f5fdd3708,FormBIS,9,0,question4,NULL,ANSWER,There is a mix of squares of both colors%2C with circles of both as well.
1553199021,5e2b0493b9e46ebe6bfe747f5fdd3708,FormBIS,11,0,question6,NULL,ANSWER,all red circles and squares
1553199021,5e2b0493b9e46ebe6bfe747f5fdd3708,FormBIS,13,0,question8,NULL,ANSWER,There are many red squares with two blue circles and a blue square.
#
# Results on Friday March 22 2019 22:20:42 UTC.
# USER AGENT: Mozilla/5.0 (Macintosh; Intel Mac OS X 10_14_2) AppleWebKit/537.36 (KHTML, like Gecko) Chrome/72.0.3626.96 Safari/537.36
# Design number was non-random = 35
#
# Columns below this comment are as follows:
# 1. Time results were received.
# 2. MD5 hash of participant's IP address.
# 3. Controller name.
# 4. Item number.
# 5. Element number.
# 6. Type.
# 7. Group.
# 8. Field name.
# 9. Field value.
1553293242,d7087da16360f28cea1eda015846f404,Form,1,0,intro,NULL,age,22
1553293242,d7087da16360f28cea1eda015846f404,Form,1,0,intro,NULL,consent,yes
1553293242,d7087da16360f28cea1eda015846f404,Form,1,0,intro,NULL,sex,female
1553293242,d7087da16360f28cea1eda015846f404,Form,1,0,intro,NULL,english,native
1553293242,d7087da16360f28cea1eda015846f404,Form,1,0,intro,NULL,education,bachelor
1553293242,d7087da16360f28cea1eda015846f404,FormBIS,6,0,1question,NULL,ANSWER,All shapes are red in color
1553293242,d7087da16360f28cea1eda015846f404,FormBIS,14,0,question9,NULL,ANSWER,All objects are blue square except one is a blue circle
1553293242,d7087da16360f28cea1eda015846f404,FormBIS,11,0,question6,NULL,ANSWER,There are more red squares than red circles
1553293242,d7087da16360f28cea1eda015846f404,FormBIS,9,0,question4,NULL,ANSWER,Half the objects are red while half are blue
1553293242,d7087da16360f28cea1eda015846f404,FormBIS,10,0,question5,NULL,ANSWER,There are two blue circles and 7 red circles
1553293242,d7087da16360f28cea1eda015846f404,FormBIS,15,0,question10,NULL,ANSWER,There are only 2 red objects%2C the rest are blue
1553293242,d7087da16360f28cea1eda015846f404,FormBIS,8,0,question3,NULL,ANSWER,There two red objects and the rest are blue
1553293242,d7087da16360f28cea1eda015846f404,FormBIS,13,0,question8,NULL,ANSWER,There are 3 blue objects and the rest are red
1553293242,d7087da16360f28cea1eda015846f404,FormBIS,12,0,question7,NULL,ANSWER,There are 2 blue squares%2C while the rest are red circles
1553293242,d7087da16360f28cea1eda015846f404,FormBIS,7,0,question2,NULL,ANSWER,All the objects are blue and there are 2 circles
#
# Results on Saturday March 23 2019 00:44:24 UTC.
# USER AGENT: Mozilla/5.0 (iPhone; CPU iPhone OS 12_1_2 like Mac OS X) AppleWebKit/605.1.15 (KHTML, like Gecko) Version/12.0 Mobile/15E148 Safari/604.1
# Design number was non-random = 36
#
# Columns below this comment are as follows:
# 1. Time results were received.
# 2. MD5 hash of participant's IP address.
# 3. Controller name.
# 4. Item number.
# 5. Element number.
# 6. Type.
# 7. Group.
# 8. Field name.
# 9. Field value.
1553301865,934f35bed34270536dcf1a78732dc978,Form,1,0,intro,NULL,age,22
1553301865,934f35bed34270536dcf1a78732dc978,Form,1,0,intro,NULL,consent,yes
1553301865,934f35bed34270536dcf1a78732dc978,Form,1,0,intro,NULL,sex,female
1553301865,934f35bed34270536dcf1a78732dc978,Form,1,0,intro,NULL,english,native
1553301865,934f35bed34270536dcf1a78732dc978,Form,1,0,intro,NULL,education,master
1553301865,934f35bed34270536dcf1a78732dc978,FormBIS,6,0,1question,NULL,ANSWER,Red squares
1553301865,934f35bed34270536dcf1a78732dc978,FormBIS,8,0,question3,NULL,ANSWER,Blue circles & red and blue squares
1553301865,934f35bed34270536dcf1a78732dc978,FormBIS,13,0,question8,NULL,ANSWER,Red and blue squares &  blue circles 
1553301865,934f35bed34270536dcf1a78732dc978,FormBIS,11,0,question6,NULL,ANSWER,Red squares and red circles 
1553301865,934f35bed34270536dcf1a78732dc978,FormBIS,7,0,question2,NULL,ANSWER,?
1553301865,934f35bed34270536dcf1a78732dc978,FormBIS,14,0,question9,NULL,ANSWER,Bs
1553301865,934f35bed34270536dcf1a78732dc978,FormBIS,10,0,question5,NULL,ANSWER,B
1553301865,934f35bed34270536dcf1a78732dc978,FormBIS,15,0,question10,NULL,ANSWER,J
1553301865,934f35bed34270536dcf1a78732dc978,FormBIS,12,0,question7,NULL,ANSWER,I don’t understand thtis
1553301865,934f35bed34270536dcf1a78732dc978,FormBIS,9,0,question4,NULL,ANSWER,Fo
#
# Results on Saturday March 23 2019 14:43:44 UTC.
# USER AGENT: Mozilla/5.0 (Windows NT 10.0; Win64; x64) AppleWebKit/537.36 (KHTML, like Gecko) Chrome/73.0.3683.86 Safari/537.36
# Design number was non-random = 37
#
# Columns below this comment are as follows:
# 1. Time results were received.
# 2. MD5 hash of participant's IP address.
# 3. Controller name.
# 4. Item number.
# 5. Element number.
# 6. Type.
# 7. Group.
# 8. Field name.
# 9. Field value.
1553352224,c96158891678760ac731dd73e013fbe4,Form,1,0,intro,NULL,age,23
1553352224,c96158891678760ac731dd73e013fbe4,Form,1,0,intro,NULL,consent,yes
1553352224,c96158891678760ac731dd73e013fbe4,Form,1,0,intro,NULL,sex,male
1553352224,c96158891678760ac731dd73e013fbe4,Form,1,0,intro,NULL,english,native
1553352224,c96158891678760ac731dd73e013fbe4,Form,1,0,intro,NULL,education,highschool
1553352224,c96158891678760ac731dd73e013fbe4,FormBIS,6,0,1question,NULL,ANSWER,q
1553352224,c96158891678760ac731dd73e013fbe4,FormBIS,14,0,question9,NULL,ANSWER,q
1553352224,c96158891678760ac731dd73e013fbe4,FormBIS,13,0,question8,NULL,ANSWER,q
1553352224,c96158891678760ac731dd73e013fbe4,FormBIS,8,0,question3,NULL,ANSWER,q
1553352224,c96158891678760ac731dd73e013fbe4,FormBIS,9,0,question4,NULL,ANSWER,w
1553352224,c96158891678760ac731dd73e013fbe4,FormBIS,12,0,question7,NULL,ANSWER,e
1553352224,c96158891678760ac731dd73e013fbe4,FormBIS,11,0,question6,NULL,ANSWER,w
1553352224,c96158891678760ac731dd73e013fbe4,FormBIS,7,0,question2,NULL,ANSWER,2
1553352224,c96158891678760ac731dd73e013fbe4,FormBIS,15,0,question10,NULL,ANSWER,3
1553352224,c96158891678760ac731dd73e013fbe4,FormBIS,10,0,question5,NULL,ANSWER,1
#
# Results on Sunday March 24 2019 15:50:12 UTC.
# USER AGENT: Mozilla/5.0 (Windows NT 6.3; Win64; x64) AppleWebKit/537.36 (KHTML, like Gecko) Chrome/72.0.3626.121 Safari/537.36
# Design number was non-random = 38
#
# Columns below this comment are as follows:
# 1. Time results were received.
# 2. MD5 hash of participant's IP address.
# 3. Controller name.
# 4. Item number.
# 5. Element number.
# 6. Type.
# 7. Group.
# 8. Field name.
# 9. Field value.
1553442612,a92497de547cfd5dfe284e80ebf85737,Form,1,0,intro,NULL,age,20
1553442612,a92497de547cfd5dfe284e80ebf85737,Form,1,0,intro,NULL,consent,yes
1553442612,a92497de547cfd5dfe284e80ebf85737,Form,1,0,intro,NULL,sex,male
1553442612,a92497de547cfd5dfe284e80ebf85737,Form,1,0,intro,NULL,english,native
1553442612,a92497de547cfd5dfe284e80ebf85737,Form,1,0,intro,NULL,education,bachelor
1553442612,a92497de547cfd5dfe284e80ebf85737,FormBIS,6,0,1question,NULL,ANSWER,jd
1553442612,a92497de547cfd5dfe284e80ebf85737,FormBIS,15,0,question10,NULL,ANSWER,nice
1553442612,a92497de547cfd5dfe284e80ebf85737,FormBIS,7,0,question2,NULL,ANSWER,apart
1553442612,a92497de547cfd5dfe284e80ebf85737,FormBIS,9,0,question4,NULL,ANSWER,red
1553442612,a92497de547cfd5dfe284e80ebf85737,FormBIS,14,0,question9,NULL,ANSWER,blue
